ExperimentName	subjID	block	trial	choice	outcome	choiceSwitch	choice.ACC	choice.RT	Subject_BlockPRL_Young_Final	5038	1	1	2	25	1	1	1430	5038_1PRL_Young_Final	5038	1	2	2	25	0	1	439	5038_1PRL_Young_Final	5038	1	3	2	-25	0	1	374	5038_1PRL_Young_Final	5038	1	4	2	25	0	1	267	5038_1PRL_Young_Final	5038	1	5	2	25	0	1	331	5038_1PRL_Young_Final	5038	1	6	2	-25	0	1	316	5038_1PRL_Young_Final	5038	1	7	2	25	0	1	325	5038_1PRL_Young_Final	5038	1	8	2	25	0	0	264	5038_1PRL_Young_Final	5038	1	9	2	-25	0	0	343	5038_1PRL_Young_Final	5038	1	10	2	-25	0	0	292	5038_1PRL_Young_Final	5038	1	11	2	-25	0	0	288	5038_1PRL_Young_Final	5038	1	12	1	25	1	1	308	5038_1PRL_Young_Final	5038	1	13	1	25	0	1	383	5038_1PRL_Young_Final	5038	1	14	1	25	0	1	322	5038_1PRL_Young_Final	5038	1	15	1	25	0	1	297	5038_1PRL_Young_Final	5038	1	16	1	-25	0	1	350	5038_1PRL_Young_Final	5038	1	17	1	-25	0	0	484	5038_1PRL_Young_Final	5038	1	18	2	-25	1	1	442	5038_1PRL_Young_Final	5038	1	19	1	-25	1	0	298	5038_1PRL_Young_Final	5038	1	20	1	-25	0	0	312	5038_1PRL_Young_Final	5038	1	21	2	25	1	1	358	5038_1PRL_Young_Final	5038	1	22	2	25	0	1	397	5038_1PRL_Young_Final	5038	1	23	2	25	0	1	563	5038_1PRL_Young_Final	5038	1	24	2	25	0	1	351	5038_1PRL_Young_Final	5038	1	25	2	25	0	1	278	5038_1PRL_Young_Final	5038	1	26	2	25	0	1	222	5038_1PRL_Young_Final	5038	1	27	2	-25	0	1	391	5038_1PRL_Young_Final	5038	1	28	2	25	0	1	231	5038_1PRL_Young_Final	5038	1	29	2	25	0	0	281	5038_1PRL_Young_Final	5038	1	30	2	25	0	0	363	5038_1PRL_Young_Final	5038	1	31	2	-25	0	0	282	5038_1PRL_Young_Final	5038	1	32	2	-25	0	0	308	5038_1PRL_Young_Final	5038	1	33	2	-25	0	0	270	5038_1PRL_Young_Final	5038	1	34	1	25	1	1	291	5038_1PRL_Young_Final	5038	1	35	1	25	0	1	350	5038_1PRL_Young_Final	5038	1	36	1	25	0	1	271	5038_1PRL_Young_Final	5038	1	37	1	25	0	1	310	5038_1PRL_Young_Final	5038	1	38	1	25	0	1	341	5038_1PRL_Young_Final	5038	1	39	1	25	0	1	291	5038_1PRL_Young_Final	5038	1	40	1	-25	0	1	338	5038_1PRL_Young_Final	5038	1	41	1	25	0	1	296	5038_1PRL_Young_Final	5038	1	42	1	-25	0	0	419	5038_1PRL_Young_Final	5038	1	43	1	-25	0	0	356	5038_1PRL_Young_Final	5038	1	44	2	25	1	1	239	5038_1PRL_Young_Final	5038	1	45	2	-25	0	1	241	5038_1PRL_Young_Final	5038	1	46	2	25	0	1	386	5038_1PRL_Young_Final	5038	1	47	2	25	0	1	282	5038_1PRL_Young_Final	5038	1	48	2	25	0	1	276	5038_1PRL_Young_Final	5038	1	49	2	25	0	1	353	5038_1PRL_Young_Final	5038	1	50	2	25	0	1	264	5038_1PRL_Young_Final	5038	1	51	2	-25	0	0	412	5038_1PRL_Young_Final	5038	1	52	2	25	0	0	381	5038_1PRL_Young_Final	5038	1	53	2	-25	0	0	272	5038_1PRL_Young_Final	5038	1	54	2	-25	0	0	315	5038_1PRL_Young_Final	5038	1	55	2	-25	0	0	343	5038_1PRL_Young_Final	5038	1	56	1	-25	1	1	339	5038_1PRL_Young_Final	5038	1	57	1	-25	0	1	276	5038_1PRL_Young_Final	5038	1	58	2	-25	1	0	302	5038_1PRL_Young_Final	5038	1	59	2	-25	0	0	294	5038_1PRL_Young_Final	5038	1	60	1	25	1	1	382	5038_1PRL_Young_Final	5038	1	61	1	25	0	1	408	5038_1PRL_Young_Final	5038	1	62	1	25	0	1	475	5038_1PRL_Young_Final	5038	1	63	1	25	0	1	279	5038_1PRL_Young_Final	5038	1	64	1	25	0	1	678	5038_1PRL_Young_Final	5038	1	65	1	-25	0	0	319	5038_1PRL_Young_Final	5038	1	66	1	-25	0	0	1048	5038_1PRL_Young_Final	5038	1	67	2	25	1	1	385	5038_1PRL_Young_Final	5038	1	68	2	-25	0	1	465	5038_1PRL_Young_Final	5038	1	69	2	25	0	1	347	5038_1PRL_Young_Final	5038	1	70	2	25	0	1	462	5038_1PRL_Young_Final	5038	1	71	2	25	0	1	402	5038_1PRL_Young_Final	5038	1	72	2	25	0	1	426	5038_1PRL_Young_Final	5038	1	73	2	25	0	0	330	5038_1PRL_Young_Final	5038	1	74	2	-25	0	0	337	5038_1PRL_Young_Final	5038	1	75	2	25	0	0	236	5038_1PRL_Young_Final	5038	1	76	2	-25	0	0	385	5038_1PRL_Young_Final	5038	1	77	2	-25	0	0	391	5038_1PRL_Young_Final	5038	1	78	1	25	1	1	647	5038_1PRL_Young_Final	5038	1	79	1	25	0	1	410	5038_1PRL_Young_Final	5038	1	80	1	25	0	1	351	5038_1PRL_Young_Final	5038	1	81	1	-25	0	1	286	5038_1PRL_Young_Final	5038	1	82	1	25	0	1	359	5038_1PRL_Young_Final	5038	1	83	1	25	0	1	295	5038_1PRL_Young_Final	5038	1	84	1	-25	0	0	344	5038_1PRL_Young_Final	5038	1	85	1	-25	0	0	282	5038_1PRL_Young_Final	5038	1	86	2	-25	1	1	667	5038_1PRL_Young_Final	5038	1	87	2	25	0	1	331	5038_1PRL_Young_Final	5038	1	88	2	25	0	1	382	5038_1PRL_Young_Final	5038	1	89	2	25	0	1	300	5038_1PRL_Young_Final	5038	1	90	2	25	0	1	307	5038_1PRL_Young_Final	5038	1	91	2	25	0	1	329	5038_1PRL_Young_Final	5038	1	92	2	-25	0	1	375	5038_1PRL_Young_Final	5038	1	93	2	-25	0	1	193	5038_1PRL_Young_Final	5038	1	94	1	25	1	1	658	5038_1PRL_Young_Final	5038	1	95	1	25	0	1	466	5038_1PRL_Young_Final	5038	1	96	1	25	0	1	394	5038_1PRL_Young_Final	5038	1	97	1	25	0	1	272	5038_1PRL_Young_Final	5038	1	98	1	25	0	1	336	5038_1PRL_Young_Final	5038	1	99	1	25	0	1	446	5038_1PRL_Young_Final	5038	1	100	1	-25	0	1	387	5038_1PRL_Young_Final	5038	1	101	1	25	0	1	415	5038_1PRL_Young_Final	5038	1	102	1	-25	0	0	434	5038_1PRL_Young_Final	5038	1	103	1	-25	0	0	383	5038_1PRL_Young_Final	5038	1	104	2	25	1	1	341	5038_1PRL_Young_Final	5038	1	105	2	25	0	1	575	5038_1PRL_Young_Final	5038	1	106	2	25	0	1	332	5038_1PRL_Young_Final	5038	1	107	2	25	0	1	411	5038_1PRL_Young_Final	5038	1	108	2	25	0	1	408	5038_1PRL_Young_Final	5038	1	109	2	25	0	1	364	5038_1PRL_Young_Final	5038	1	110	2	25	0	0	429	5038_1PRL_Young_Final	5038	1	111	2	25	0	0	342	5038_1PRL_Young_Final	5038	1	112	2	-25	0	0	56	5038_1PRL_Young_Final	5038	1	113	2	-25	0	0	339	5038_1PRL_Young_Final	5038	1	114	1	-25	1	1	369	5038_1PRL_Young_Final	5038	1	115	1	25	0	1	779	5038_1PRL_Young_Final	5038	1	116	1	25	0	1	529	5038_1PRL_Young_Final	5038	1	117	1	-25	0	1	397	5038_1PRL_Young_Final	5038	1	118	1	25	0	1	414	5038_1PRL_Young_Final	5038	1	119	2	-25	1	0	392	5038_1PRL_Young_Final	5038	1	120	1	25	1	1	518	5038_1PRL_Young_Final	5038	1	121	1	25	0	1	470	5038_1PRL_Young_Final	5038	1	122	1	25	0	1	587	5038_1PRL_Young_Final	5038	1	123	1	25	0	1	377	5038_1PRL_Young_Final	5038	1	124	1	-25	0	1	351	5038_1PRL_Young_Final	5038	1	125	1	-25	0	1	331	5038_1PRL_Young_Final	5038	1	126	2	-25	1	0	265	5038_1PRL_Young_Final	5038	1	127	2	-25	0	0	327	5038_1PRL_Young_Final	5038	1	128	1	25	1	1	244	5038_1PRL_Young_Final	5038	1	129	1	25	0	1	363	5038_1PRL_Young_Final	5038	1	130	1	25	0	1	639	5038_1PRL_Young_Final	5038	1	131	1	25	0	1	435	5038_1PRL_Young_Final	5038	1	132	1	25	0	1	436	5038_1PRL_Young_Final	5038	1	133	1	25	0	1	559	5038_1PRL_Young_Final	5038	1	134	1	-25	0	1	388	5038_1PRL_Young_Final	5038	1	135	1	25	0	1	271	5038_1PRL_Young_Final	5038	1	136	1	-25	0	0	430	5038_1PRL_Young_Final	5038	1	137	1	25	0	0	536	5038_1PRL_Young_Final	5038	1	138	1	-25	0	0	281	5038_1PRL_Young_Final	5038	1	139	2	25	1	1	370	5038_1PRL_Young_Final	5038	1	140	2	25	0	1	335	5038_1PRL_Young_Final	5038	1	141	2	25	0	1	409	5038_1PRL_Young_Final	5038	1	142	2	25	0	1	358	5038_1PRL_Young_Final	5038	1	143	2	25	0	1	261	5038_1PRL_Young_Final	5038	1	144	2	-25	0	0	294	5038_1PRL_Young_Final	5038	1	145	2	-25	0	0	395	5038_1PRL_Young_Final	5038	1	146	1	25	1	1	417	5038_1PRL_Young_Final	5038	1	147	1	-25	0	1	410	5038_1PRL_Young_Final	5038	1	148	2	-25	1	0	348	5038_1PRL_Young_Final	5038	1	149	2	-25	0	0	336	5038_1PRL_Young_Final	5038	1	150	1	25	1	1	322	5038_1PRL_Young_Final	5038	1	151	1	25	0	1	363	5038_1PRL_Young_Final	5038	1	152	1	-25	0	1	353	5038_1PRL_Young_Final	5038	1	153	1	25	0	1	247	5038_1PRL_Young_Final	5038	1	154	1	25	0	1	347	5038_1PRL_Young_Final	5038	1	155	1	-25	0	0	341	5038_1PRL_Young_Final	5038	1	156	1	-25	0	0	358	5038_1PRL_Young_Final	5038	1	157	2	25	1	1	268	5038_1PRL_Young_Final	5038	1	158	2	25	0	1	312	5038_1PRL_Young_Final	5038	1	159	2	25	0	1	559	5038_1PRL_Young_Final	5038	1	160	2	-25	0	1	468	5038_1PRL_Young_Final	5038	1	161	2	-25	0	1	938	5038_1PRL_Young_Final	5038	1	162	1	25	1	0	277	5038_1PRL_Young_Final	5038	1	163	1	-25	0	0	385	5038_1PRL_Young_Final	5038	1	164	1	25	0	0	642	5038_1PRL_Young_Final	5038	1	165	1	-25	0	0	420	5038_1PRL_Young_Final	5038	1	166	1	-25	0	0	307	5038_1PRL_Young_Final	5038	1	167	2	25	1	1	260	5038_1PRL_Young_Final	5038	1	168	2	25	0	1	312	5038_1PRL_Young_Final	5038	1	169	2	25	0	1	305	5038_1PRL_Young_Final	5038	1	170	2	25	0	1	354	5038_1PRL_Young_Final	5038	1	171	2	25	0	1	341	5038_1PRL_Young_Final	5038	1	172	2	25	0	1	355	5038_1PRL_Young_Final	5038	1	173	2	-25	0	1	305	5038_1PRL_Young_Final	5038	1	174	2	25	0	1	279	5038_1PRL_Young_Final	5038	1	175	2	-25	0	0	342	5038_1PRL_Young_Final	5038	1	176	2	-25	0	0	116	5038_1PRL_Young_Final	5038	1	177	1	25	1	1	38	5038_1PRL_Young_Final	5038	1	178	1	25	0	1	326	5038_1PRL_Young_Final	5038	1	179	1	25	0	1	368	5038_1PRL_Young_Final	5038	1	180	1	25	0	1	373	5038_1PRL_Young_Final	5038	1	181	1	25	0	1	313	5038_1PRL_Young_Final	5038	1	182	1	25	0	1	300	5038_1PRL_Young_Final	5038	1	183	1	-25	0	1	296	5038_1PRL_Young_Final	5038	1	184	1	25	0	1	355	5038_1PRL_Young_Final	5038	1	185	1	-25	0	0	314	5038_1PRL_Young_Final	5038	1	186	2	25	1	1	286	5038_1PRL_Young_Final	5038	1	187	2	-25	0	1	442	5038_1PRL_Young_Final	5038	1	188	2	25	0	1	364	5038_1PRL_Young_Final	5038	1	189	2	25	0	1	336	5038_1PRL_Young_Final	5038	1	190	2	25	0	1	464	5038_1PRL_Young_Final	5038	1	191	2	25	0	1	367	5038_1PRL_Young_Final	5038	1	192	2	25	0	1	356	5038_1PRL_Young_Final	5038	1	193	2	-25	0	1	577	5038_1PRL_Young_Final	5038	1	194	2	-25	0	0	327	5038_1PRL_Young_Final	5038	1	195	1	-25	1	1	919	5038_1PRL_Young_Final	5038	1	196	1	25	0	1	292	5038_1PRL_Young_Final	5038	1	197	1	25	0	1	570	5038_1PRL_Young_Final	5038	1	198	1	25	0	1	397	5038_1PRL_Young_Final	5038	1	199	1	25	0	1	611	5038_1PRL_Young_Final	5038	1	200	1	25	0	0	373	5038_1PRL_Young_Final	5038	2	1	2	25	1	1	884	5038_2PRL_Young_Final	5038	2	2	2	25	0	1	435	5038_2PRL_Young_Final	5038	2	3	2	-25	0	1	376	5038_2PRL_Young_Final	5038	2	4	2	25	0	1	342	5038_2PRL_Young_Final	5038	2	5	2	25	0	1	300	5038_2PRL_Young_Final	5038	2	6	2	25	0	1	394	5038_2PRL_Young_Final	5038	2	7	2	25	0	0	363	5038_2PRL_Young_Final	5038	2	8	2	-25	0	0	356	5038_2PRL_Young_Final	5038	2	9	2	-25	0	0	348	5038_2PRL_Young_Final	5038	2	10	1	25	1	1	305	5038_2PRL_Young_Final	5038	2	11	1	25	0	1	448	5038_2PRL_Young_Final	5038	2	12	1	25	0	1	328	5038_2PRL_Young_Final	5038	2	13	1	25	0	1	752	5038_2PRL_Young_Final	5038	2	14	1	-25	0	1	647	5038_2PRL_Young_Final	5038	2	15	1	25	0	1	386	5038_2PRL_Young_Final	5038	2	16	1	25	0	1	579	5038_2PRL_Young_Final	5038	2	17	1	-25	0	1	530	5038_2PRL_Young_Final	5038	2	18	1	-25	0	0	646	5038_2PRL_Young_Final	5038	2	19	2	25	1	1	279	5038_2PRL_Young_Final	5038	2	20	2	25	0	1	401	5038_2PRL_Young_Final	5038	2	21	2	25	0	1	476	5038_2PRL_Young_Final	5038	2	22	2	25	0	1	363	5038_2PRL_Young_Final	5038	2	23	2	25	0	1	435	5038_2PRL_Young_Final	5038	2	24	2	-25	0	1	363	5038_2PRL_Young_Final	5038	2	25	2	-25	0	1	268	5038_2PRL_Young_Final	5038	2	26	1	-25	1	0	426	5038_2PRL_Young_Final	5038	2	27	1	-25	0	0	259	5038_2PRL_Young_Final	5038	2	28	2	25	1	1	315	5038_2PRL_Young_Final	5038	2	29	2	25	0	1	372	5038_2PRL_Young_Final	5038	2	30	2	25	0	1	432	5038_2PRL_Young_Final	5038	2	31	2	25	0	1	349	5038_2PRL_Young_Final	5038	2	32	2	25	0	1	346	5038_2PRL_Young_Final	5038	2	33	2	-25	0	0	340	5038_2PRL_Young_Final	5038	2	34	2	25	0	0	332	5038_2PRL_Young_Final	5038	2	35	2	-25	0	0	348	5038_2PRL_Young_Final	5038	2	36	2	-25	0	0	362	5038_2PRL_Young_Final	5038	2	37	1	25	1	1	245	5038_2PRL_Young_Final	5038	2	38	1	-25	0	1	316	5038_2PRL_Young_Final	5038	2	39	1	25	0	1	336	5038_2PRL_Young_Final	5038	2	40	1	25	0	1	312	5038_2PRL_Young_Final	5038	2	41	1	25	0	1	423	5038_2PRL_Young_Final	5038	2	42	1	25	0	1	461	5038_2PRL_Young_Final	5038	2	43	1	25	0	1	332	5038_2PRL_Young_Final	5038	2	44	1	25	0	1	336	5038_2PRL_Young_Final	5038	2	45	1	-25	0	0	361	5038_2PRL_Young_Final	5038	2	46	1	-25	0	0	738	5038_2PRL_Young_Final	5038	2	47	2	25	1	1	256	5038_2PRL_Young_Final	5038	2	48	2	-25	0	1	293	5038_2PRL_Young_Final	5038	2	49	2	25	0	1	732	5038_2PRL_Young_Final	5038	2	50	2	25	0	1	346	5038_2PRL_Young_Final	5038	2	51	2	-25	0	1	503	5038_2PRL_Young_Final	5038	2	52	2	-25	0	0	338	5038_2PRL_Young_Final	5038	2	53	1	25	1	1	381	5038_2PRL_Young_Final	5038	2	54	1	25	0	1	279	5038_2PRL_Young_Final	5038	2	55	1	25	0	1	393	5038_2PRL_Young_Final	5038	2	56	1	25	0	1	425	5038_2PRL_Young_Final	5038	2	57	1	25	0	1	296	5038_2PRL_Young_Final	5038	2	58	1	-25	0	1	445	5038_2PRL_Young_Final	5038	2	59	1	-25	0	1	279	5038_2PRL_Young_Final	5038	2	60	2	-25	1	0	23	5038_2PRL_Young_Final	5038	2	61	2	-25	0	0	342	5038_2PRL_Young_Final	5038	2	62	1	25	1	1	411	5038_2PRL_Young_Final	5038	2	63	1	25	0	1	359	5038_2PRL_Young_Final	5038	2	64	1	25	0	1	265	5038_2PRL_Young_Final	5038	2	65	1	25	0	1	421	5038_2PRL_Young_Final	5038	2	66	1	25	0	1	561	5038_2PRL_Young_Final	5038	2	67	1	25	0	0	325	5038_2PRL_Young_Final	5038	2	68	1	-25	0	0	356	5038_2PRL_Young_Final	5038	2	69	1	25	0	0	343	5038_2PRL_Young_Final	5038	2	70	1	-25	0	0	411	5038_2PRL_Young_Final	5038	2	71	1	-25	0	0	278	5038_2PRL_Young_Final	5038	2	72	2	25	1	1	329	5038_2PRL_Young_Final	5038	2	73	2	-25	0	1	347	5038_2PRL_Young_Final	5038	2	74	1	-25	1	0	314	5038_2PRL_Young_Final	5038	2	75	2	25	1	1	271	5038_2PRL_Young_Final	5038	2	76	2	25	0	1	357	5038_2PRL_Young_Final	5038	2	77	2	25	0	1	391	5038_2PRL_Young_Final	5038	2	78	2	25	0	1	371	5038_2PRL_Young_Final	5038	2	79	2	25	0	1	263	5038_2PRL_Young_Final	5038	2	80	2	25	0	1	306	5038_2PRL_Young_Final	5038	2	81	2	25	0	1	366	5038_2PRL_Young_Final	5038	2	82	2	-25	0	1	313	5038_2PRL_Young_Final	5038	2	83	2	-25	0	0	379	5038_2PRL_Young_Final	5038	2	84	1	25	1	1	328	5038_2PRL_Young_Final	5038	2	85	1	25	0	1	388	5038_2PRL_Young_Final	5038	2	86	1	-25	0	1	273	5038_2PRL_Young_Final	5038	2	87	1	25	0	1	324	5038_2PRL_Young_Final	5038	2	88	1	25	0	1	592	5038_2PRL_Young_Final	5038	2	89	1	25	0	1	467	5038_2PRL_Young_Final	5038	2	90	1	25	0	1	336	5038_2PRL_Young_Final	5038	2	91	1	-25	0	0	347	5038_2PRL_Young_Final	5038	2	92	1	-25	0	0	320	5038_2PRL_Young_Final	5038	2	93	2	25	1	1	447	5038_2PRL_Young_Final	5038	2	94	2	-25	0	1	494	5038_2PRL_Young_Final	5038	2	95	2	-25	0	1	456	5038_2PRL_Young_Final	5038	2	96	1	25	1	0	309	5038_2PRL_Young_Final	5038	2	97	1	25	0	0	430	5038_2PRL_Young_Final	5038	2	98	1	-25	0	0	315	5038_2PRL_Young_Final	5038	2	99	1	-25	0	0	471	5038_2PRL_Young_Final	5038	2	100	2	25	1	1	344	5038_2PRL_Young_Final	5038	2	101	2	25	0	1	325	5038_2PRL_Young_Final	5038	2	102	2	25	0	1	367	5038_2PRL_Young_Final	5038	2	103	2	25	0	1	353	5038_2PRL_Young_Final	5038	2	104	2	25	0	1	262	5038_2PRL_Young_Final	5038	2	105	2	-25	0	0	225	5038_2PRL_Young_Final	5038	2	106	2	-25	0	0	435	5038_2PRL_Young_Final	5038	2	107	1	25	1	1	319	5038_2PRL_Young_Final	5038	2	108	1	-25	0	1	330	5038_2PRL_Young_Final	5038	2	109	1	25	0	1	161	5038_2PRL_Young_Final	5038	2	110	1	25	0	1	347	5038_2PRL_Young_Final	5038	2	111	1	25	0	1	374	5038_2PRL_Young_Final	5038	2	112	1	25	0	1	358	5038_2PRL_Young_Final	5038	2	113	1	25	0	1	260	5038_2PRL_Young_Final	5038	2	114	1	-25	0	0	297	5038_2PRL_Young_Final	5038	2	115	1	-25	0	0	329	5038_2PRL_Young_Final	5038	2	116	2	25	1	1	295	5038_2PRL_Young_Final	5038	2	117	2	25	0	1	318	5038_2PRL_Young_Final	5038	2	118	2	-25	0	1	322	5038_2PRL_Young_Final	5038	2	119	2	25	0	1	16	5038_2PRL_Young_Final	5038	2	120	2	25	0	1	310	5038_2PRL_Young_Final	5038	2	121	2	-25	0	1	327	5038_2PRL_Young_Final	5038	2	122	1	25	1	0	334	5038_2PRL_Young_Final	5038	2	123	1	-25	0	0	330	5038_2PRL_Young_Final	5038	2	124	1	-25	0	0	355	5038_2PRL_Young_Final	5038	2	125	2	25	1	1	378	5038_2PRL_Young_Final	5038	2	126	2	25	0	1	411	5038_2PRL_Young_Final	5038	2	127	2	25	0	1	357	5038_2PRL_Young_Final	5038	2	128	2	25	0	1	400	5038_2PRL_Young_Final	5038	2	129	2	25	0	1	516	5038_2PRL_Young_Final	5038	2	130	2	-25	0	1	392	5038_2PRL_Young_Final	5038	2	131	2	-25	0	1	294	5038_2PRL_Young_Final	5038	2	132	1	-25	1	0	299	5038_2PRL_Young_Final	5038	2	133	2	25	1	1	506	5038_2PRL_Young_Final	5038	2	134	2	25	0	1	329	5038_2PRL_Young_Final	5038	2	135	2	25	0	1	379	5038_2PRL_Young_Final	5038	2	136	2	25	0	1	314	5038_2PRL_Young_Final	5038	2	137	2	25	0	1	398	5038_2PRL_Young_Final	5038	2	138	2	25	0	1	425	5038_2PRL_Young_Final	5038	2	139	2	-25	0	1	351	5038_2PRL_Young_Final	5038	2	140	2	25	0	1	342	5038_2PRL_Young_Final	5038	2	141	2	-25	0	0	335	5038_2PRL_Young_Final	5038	2	142	2	-25	0	0	392	5038_2PRL_Young_Final	5038	2	143	2	-25	0	0	776	5038_2PRL_Young_Final	5038	2	144	1	25	1	1	310	5038_2PRL_Young_Final	5038	2	145	1	25	0	1	304	5038_2PRL_Young_Final	5038	2	146	1	25	0	1	329	5038_2PRL_Young_Final	5038	2	147	1	25	0	1	448	5038_2PRL_Young_Final	5038	2	148	1	25	0	1	943	5038_2PRL_Young_Final	5038	2	149	1	25	0	1	370	5038_2PRL_Young_Final	5038	2	150	1	-25	0	1	356	5038_2PRL_Young_Final	5038	2	151	1	-25	0	0	431	5038_2PRL_Young_Final	5038	2	152	2	25	1	1	275	5038_2PRL_Young_Final	5038	2	153	2	25	0	1	345	5038_2PRL_Young_Final	5038	2	154	2	-25	0	1	506	5038_2PRL_Young_Final	5038	2	155	2	25	0	1	376	5038_2PRL_Young_Final	5038	2	156	2	25	0	1	346	5038_2PRL_Young_Final	5038	2	157	2	25	0	1	227	5038_2PRL_Young_Final	5038	2	158	2	25	0	0	512	5038_2PRL_Young_Final	5038	2	159	2	-25	0	0	383	5038_2PRL_Young_Final	5038	2	160	1	25	1	1	1125	5038_2PRL_Young_Final	5038	2	161	1	25	0	1	393	5038_2PRL_Young_Final	5038	2	162	1	-25	0	1	497	5038_2PRL_Young_Final	5038	2	163	1	-25	0	1	375	5038_2PRL_Young_Final	5038	2	164	2	25	1	0	291	5038_2PRL_Young_Final	5038	2	165	2	-25	0	0	390	5038_2PRL_Young_Final	5038	2	166	2	-25	0	0	389	5038_2PRL_Young_Final	5038	2	167	1	25	1	1	333	5038_2PRL_Young_Final	5038	2	168	1	25	0	1	383	5038_2PRL_Young_Final	5038	2	169	1	25	0	1	1005	5038_2PRL_Young_Final	5038	2	170	1	25	0	1	618	5038_2PRL_Young_Final	5038	2	171	1	25	0	1	448	5038_2PRL_Young_Final	5038	2	172	1	25	0	1	391	5038_2PRL_Young_Final	5038	2	173	1	-25	0	1	448	5038_2PRL_Young_Final	5038	2	174	1	-25	0	0	131	5038_2PRL_Young_Final	5038	2	175	2	25	1	1	364	5038_2PRL_Young_Final	5038	2	176	2	25	0	1	335	5038_2PRL_Young_Final	5038	2	177	2	25	0	1	473	5038_2PRL_Young_Final	5038	2	178	2	25	0	1	376	5038_2PRL_Young_Final	5038	2	179	2	25	0	1	423	5038_2PRL_Young_Final	5038	2	180	2	25	0	1	509	5038_2PRL_Young_Final	5038	2	181	2	25	0	1	659	5038_2PRL_Young_Final	5038	2	182	2	-25	0	1	450	5038_2PRL_Young_Final	5038	2	183	2	-25	0	0	415	5038_2PRL_Young_Final	5038	2	184	2	-25	0	0	610	5038_2PRL_Young_Final	5038	2	185	1	25	1	1	328	5038_2PRL_Young_Final	5038	2	186	1	25	0	1	313	5038_2PRL_Young_Final	5038	2	187	1	-25	0	1	344	5038_2PRL_Young_Final	5038	2	188	1	25	0	1	399	5038_2PRL_Young_Final	5038	2	189	1	25	0	1	436	5038_2PRL_Young_Final	5038	2	190	1	25	0	1	588	5038_2PRL_Young_Final	5038	2	191	1	25	0	1	523	5038_2PRL_Young_Final	5038	2	192	1	25	0	1	735	5038_2PRL_Young_Final	5038	2	193	1	-25	0	0	2022	5038_2PRL_Young_Final	5038	2	194	1	25	0	0	338	5038_2PRL_Young_Final	5038	2	195	1	25	0	0	458	5038_2PRL_Young_Final	5038	2	196	1	-25	0	0	535	5038_2PRL_Young_Final	5038	2	197	1	-25	0	0	325	5038_2PRL_Young_Final	5038	2	198	2	-25	1	1	286	5038_2PRL_Young_Final	5038	2	199	2	-25	0	1	355	5038_2PRL_Young_Final	5038	2	200	1	-25	1	0	360	5038_2PRL_Young_Final	5038	3	1	2	25	1	1	486	5038_3PRL_Young_Final	5038	3	2	2	25	0	1	366	5038_3PRL_Young_Final	5038	3	3	2	25	0	1	364	5038_3PRL_Young_Final	5038	3	4	2	25	0	1	396	5038_3PRL_Young_Final	5038	3	5	2	25	0	1	324	5038_3PRL_Young_Final	5038	3	6	2	25	0	1	460	5038_3PRL_Young_Final	5038	3	7	2	-25	0	1	320	5038_3PRL_Young_Final	5038	3	8	2	25	0	1	377	5038_3PRL_Young_Final	5038	3	9	2	-25	0	0	370	5038_3PRL_Young_Final	5038	3	10	2	-25	0	0	1010	5038_3PRL_Young_Final	5038	3	11	1	25	1	1	369	5038_3PRL_Young_Final	5038	3	12	1	25	0	1	358	5038_3PRL_Young_Final	5038	3	13	1	25	0	1	373	5038_3PRL_Young_Final	5038	3	14	1	25	0	1	56	5038_3PRL_Young_Final	5038	3	15	1	25	0	1	285	5038_3PRL_Young_Final	5038	3	16	1	25	0	1	320	5038_3PRL_Young_Final	5038	3	17	1	-25	0	1	319	5038_3PRL_Young_Final	5038	3	18	1	-25	0	0	306	5038_3PRL_Young_Final	5038	3	19	2	25	1	1	321	5038_3PRL_Young_Final	5038	3	20	2	25	0	1	351	5038_3PRL_Young_Final	5038	3	21	2	-25	0	1	375	5038_3PRL_Young_Final	5038	3	22	2	25	0	1	360	5038_3PRL_Young_Final	5038	3	23	2	25	0	1	387	5038_3PRL_Young_Final	5038	3	24	2	25	0	1	321	5038_3PRL_Young_Final	5038	3	25	2	25	0	1	339	5038_3PRL_Young_Final	5038	3	26	2	25	0	1	299	5038_3PRL_Young_Final	5038	3	27	2	25	0	0	214	5038_3PRL_Young_Final	5038	3	28	2	-25	0	0	441	5038_3PRL_Young_Final	5038	3	29	2	-25	0	0	476	5038_3PRL_Young_Final	5038	3	30	1	-25	1	1	307	5038_3PRL_Young_Final	5038	3	31	2	-25	1	0	597	5038_3PRL_Young_Final	5038	3	32	1	-25	1	1	631	5038_3PRL_Young_Final	5038	3	33	1	25	0	1	419	5038_3PRL_Young_Final	5038	3	34	1	25	0	1	289	5038_3PRL_Young_Final	5038	3	35	1	25	0	1	279	5038_3PRL_Young_Final	5038	3	36	1	25	0	1	424	5038_3PRL_Young_Final	5038	3	37	1	25	0	1	335	5038_3PRL_Young_Final	5038	3	38	1	25	0	1	522	5038_3PRL_Young_Final	5038	3	39	1	-25	0	0	485	5038_3PRL_Young_Final	5038	3	40	1	-25	0	0	401	5038_3PRL_Young_Final	5038	3	41	2	-25	1	1	377	5038_3PRL_Young_Final	5038	3	42	2	25	0	1	305	5038_3PRL_Young_Final	5038	3	43	2	25	0	1	19	5038_3PRL_Young_Final	5038	3	44	2	25	0	1	296	5038_3PRL_Young_Final	5038	3	45	2	25	0	1	254	5038_3PRL_Young_Final	5038	3	46	2	25	0	1	212	5038_3PRL_Young_Final	5038	3	47	2	-25	0	0	201	5038_3PRL_Young_Final	5038	3	48	2	-25	0	0	164	5038_3PRL_Young_Final	5038	3	49	1	25	1	1	727	5038_3PRL_Young_Final	5038	3	50	1	25	0	1	323	5038_3PRL_Young_Final	5038	3	51	1	-25	0	1	440	5038_3PRL_Young_Final	5038	3	52	2	25	1	0	705	5038_3PRL_Young_Final	5038	3	53	2	-25	0	0	320	5038_3PRL_Young_Final	5038	3	54	2	25	0	0	329	5038_3PRL_Young_Final	5038	3	55	2	-25	0	0	349	5038_3PRL_Young_Final	5038	3	56	2	-25	0	0	528	5038_3PRL_Young_Final	5038	3	57	1	25	1	1	338	5038_3PRL_Young_Final	5038	3	58	1	25	0	1	380	5038_3PRL_Young_Final	5038	3	59	1	-25	0	1	406	5038_3PRL_Young_Final	5038	3	60	1	25	0	1	419	5038_3PRL_Young_Final	5038	3	61	1	25	0	1	381	5038_3PRL_Young_Final	5038	3	62	1	25	0	1	432	5038_3PRL_Young_Final	5038	3	63	1	25	0	1	443	5038_3PRL_Young_Final	5038	3	64	1	-25	0	0	273	5038_3PRL_Young_Final	5038	3	65	1	-25	0	0	246	5038_3PRL_Young_Final	5038	3	66	2	25	1	1	321	5038_3PRL_Young_Final	5038	3	67	2	-25	0	1	317	5038_3PRL_Young_Final	5038	3	68	2	-25	0	1	409	5038_3PRL_Young_Final	5038	3	69	1	-25	1	0	293	5038_3PRL_Young_Final	5038	3	70	2	25	1	1	963	5038_3PRL_Young_Final	5038	3	71	2	25	0	1	398	5038_3PRL_Young_Final	5038	3	72	2	25	0	1	395	5038_3PRL_Young_Final	5038	3	73	2	25	0	1	355	5038_3PRL_Young_Final	5038	3	74	2	25	0	1	315	5038_3PRL_Young_Final	5038	3	75	2	25	0	1	467	5038_3PRL_Young_Final	5038	3	76	2	-25	0	0	758	5038_3PRL_Young_Final	5038	3	77	2	25	0	0	547	5038_3PRL_Young_Final	5038	3	78	2	25	0	0	339	5038_3PRL_Young_Final	5038	3	79	2	-25	0	0	442	5038_3PRL_Young_Final	5038	3	80	2	-25	0	0	471	5038_3PRL_Young_Final	5038	3	81	1	-25	1	1	497	5038_3PRL_Young_Final	5038	3	82	2	-25	1	0	2279	5038_3PRL_Young_Final	5038	3	83	1	25	1	1	328	5038_3PRL_Young_Final	5038	3	84	1	25	0	1	397	5038_3PRL_Young_Final	5038	3	85	1	25	0	1	531	5038_3PRL_Young_Final	5038	3	86	1	25	0	1	343	5038_3PRL_Young_Final	5038	3	87	1	25	0	1	472	5038_3PRL_Young_Final	5038	3	88	1	25	0	1	543	5038_3PRL_Young_Final	5038	3	89	1	-25	0	0	574	5038_3PRL_Young_Final	5038	3	90	1	-25	0	0	975	5038_3PRL_Young_Final	5038	3	91	2	25	1	1	1035	5038_3PRL_Young_Final	5038	3	92	2	-25	0	1	454	5038_3PRL_Young_Final	5038	3	93	2	25	0	1	370	5038_3PRL_Young_Final	5038	3	94	2	25	0	1	583	5038_3PRL_Young_Final	5038	3	95	2	-25	0	1	333	5038_3PRL_Young_Final	5038	3	96	2	25	0	1	508	5038_3PRL_Young_Final	5038	3	97	2	25	0	1	262	5038_3PRL_Young_Final	5038	3	98	2	-25	0	0	645	5038_3PRL_Young_Final	5038	3	99	2	25	0	0	1085	5038_3PRL_Young_Final	5038	3	100	2	-25	0	0	423	5038_3PRL_Young_Final	5038	3	101	2	-25	0	0	1003	5038_3PRL_Young_Final	5038	3	102	1	25	1	1	530	5038_3PRL_Young_Final	5038	3	103	1	25	0	1	388	5038_3PRL_Young_Final	5038	3	104	1	25	0	1	424	5038_3PRL_Young_Final	5038	3	105	1	-25	0	1	536	5038_3PRL_Young_Final	5038	3	106	1	-25	0	1	748	5038_3PRL_Young_Final	5038	3	107	2	-25	1	0	1117	5038_3PRL_Young_Final	5038	3	108	1	25	1	1	1623	5038_3PRL_Young_Final	5038	3	109	1	25	0	1	553	5038_3PRL_Young_Final	5038	3	110	1	25	0	1	348	5038_3PRL_Young_Final	5038	3	111	1	25	0	1	325	5038_3PRL_Young_Final	5038	3	112	1	25	0	1	388	5038_3PRL_Young_Final	5038	3	113	1	25	0	1	349	5038_3PRL_Young_Final	5038	3	114	1	-25	0	0	406	5038_3PRL_Young_Final	5038	3	115	1	-25	0	0	1710	5038_3PRL_Young_Final	5038	3	116	2	-25	1	1	553	5038_3PRL_Young_Final	5038	3	117	1	-25	1	0	356	5038_3PRL_Young_Final	5038	3	118	2	25	1	1	290	5038_3PRL_Young_Final	5038	3	119	2	25	0	1	167	5038_3PRL_Young_Final	5038	3	120	2	25	0	1	250	5038_3PRL_Young_Final	5038	3	121	2	25	0	1	278	5038_3PRL_Young_Final	5038	3	122	2	25	0	1	344	5038_3PRL_Young_Final	5038	3	123	2	-25	0	0	348	5038_3PRL_Young_Final	5038	3	124	2	25	0	0	511	5038_3PRL_Young_Final	5038	3	125	2	-25	0	0	660	5038_3PRL_Young_Final	5038	3	126	2	25	0	0	509	5038_3PRL_Young_Final	5038	3	127	2	-25	0	0	293	5038_3PRL_Young_Final	5038	3	128	1	25	1	1	492	5038_3PRL_Young_Final	5038	3	129	1	25	0	1	353	5038_3PRL_Young_Final	5038	3	130	1	-25	0	1	412	5038_3PRL_Young_Final	5038	3	131	1	25	0	1	683	5038_3PRL_Young_Final	5038	3	132	1	25	0	1	1084	5038_3PRL_Young_Final	5038	3	133	1	-25	0	1	1205	5038_3PRL_Young_Final	5038	3	134	1	25	0	1	292	5038_3PRL_Young_Final	5038	3	135	1	-25	0	0	496	5038_3PRL_Young_Final	5038	3	136	2	25	1	1	882	5038_3PRL_Young_Final	5038	3	137	2	25	0	1	419	5038_3PRL_Young_Final	5038	3	138	2	25	0	1	425	5038_3PRL_Young_Final	5038	3	139	2	25	0	1	488	5038_3PRL_Young_Final	5038	3	140	2	-25	0	1	625	5038_3PRL_Young_Final	5038	3	141	2	-25	0	1	149	5038_3PRL_Young_Final	5038	3	142	1	25	1	1	726	5038_3PRL_Young_Final	5038	3	143	1	25	0	1	479	5038_3PRL_Young_Final	5038	3	144	1	25	0	1	640	5038_3PRL_Young_Final	5038	3	145	1	25	0	1	547	5038_3PRL_Young_Final	5038	3	146	1	25	0	1	1157	5038_3PRL_Young_Final	5038	3	147	1	25	0	1	610	5038_3PRL_Young_Final	5038	3	148	1	-25	0	0	398	5038_3PRL_Young_Final	5038	3	149	1	-25	0	0	443	5038_3PRL_Young_Final	5038	3	150	2	-25	1	1	341	5038_3PRL_Young_Final	5038	3	151	2	25	0	1	453	5038_3PRL_Young_Final	5038	3	152	2	25	0	1	847	5038_3PRL_Young_Final	5038	3	153	2	25	0	1	394	5038_3PRL_Young_Final	5038	3	154	2	25	0	1	323	5038_3PRL_Young_Final	5038	3	155	2	-25	0	0	465	5038_3PRL_Young_Final	5038	3	156	2	-25	0	0	528	5038_3PRL_Young_Final	5038	3	157	1	25	1	1	628	5038_3PRL_Young_Final	5038	3	158	1	25	0	1	369	5038_3PRL_Young_Final	5038	3	159	1	25	0	1	366	5038_3PRL_Young_Final	5038	3	160	1	-25	0	1	420	5038_3PRL_Young_Final	5038	3	161	1	25	0	1	497	5038_3PRL_Young_Final	5038	3	162	1	25	0	0	1019	5038_3PRL_Young_Final	5038	3	163	1	25	0	0	468	5038_3PRL_Young_Final	5038	3	164	1	-25	0	0	319	5038_3PRL_Young_Final	5038	3	165	1	-25	0	0	819	5038_3PRL_Young_Final	5038	3	166	2	25	1	1	683	5038_3PRL_Young_Final	5038	3	167	2	-25	0	1	434	5038_3PRL_Young_Final	5038	3	168	2	25	0	1	417	5038_3PRL_Young_Final	5038	3	169	2	25	0	1	564	5038_3PRL_Young_Final	5038	3	170	2	25	0	1	431	5038_3PRL_Young_Final	5038	3	171	2	25	0	1	391	5038_3PRL_Young_Final	5038	3	172	2	25	0	1	331	5038_3PRL_Young_Final	5038	3	173	2	-25	0	1	332	5038_3PRL_Young_Final	5038	3	174	2	-25	0	0	561	5038_3PRL_Young_Final	5038	3	175	1	-25	1	1	345	5038_3PRL_Young_Final	5038	3	176	1	25	0	1	290	5038_3PRL_Young_Final	5038	3	177	1	25	0	1	514	5038_3PRL_Young_Final	5038	3	178	1	25	0	1	451	5038_3PRL_Young_Final	5038	3	179	1	25	0	1	459	5038_3PRL_Young_Final	5038	3	180	1	25	0	1	90	5038_3PRL_Young_Final	5038	3	181	1	25	0	1	449	5038_3PRL_Young_Final	5038	3	182	1	-25	0	1	452	5038_3PRL_Young_Final	5038	3	183	1	-25	0	0	161	5038_3PRL_Young_Final	5038	3	184	2	25	1	1	1073	5038_3PRL_Young_Final	5038	3	185	2	25	0	1	702	5038_3PRL_Young_Final	5038	3	186	2	25	0	1	1401	5038_3PRL_Young_Final	5038	3	187	2	25	0	1	567	5038_3PRL_Young_Final	5038	3	188	2	25	0	1	1081	5038_3PRL_Young_Final	5038	3	189	2	-25	0	0	659	5038_3PRL_Young_Final	5038	3	190	2	-25	0	0	977	5038_3PRL_Young_Final	5038	3	191	1	25	1	1	361	5038_3PRL_Young_Final	5038	3	192	1	25	0	1	625	5038_3PRL_Young_Final	5038	3	193	1	-25	0	1	355	5038_3PRL_Young_Final	5038	3	194	2	25	1	0	519	5038_3PRL_Young_Final	5038	3	195	2	-25	0	0	348	5038_3PRL_Young_Final	5038	3	196	1	25	1	1	616	5038_3PRL_Young_Final	5038	3	197	1	25	0	1	322	5038_3PRL_Young_Final	5038	3	198	1	-25	0	1	652	5038_3PRL_Young_Final	5038	3	199	2	-25	1	0	321	5038_3PRL_Young_Final	5038	3	200	1	25	1	1	863	5038_3PRL_Young_Final	5036	1	2	1	25	1	1	1282	5036_1PRL_Young_Final	5036	1	3	1	25	0	1	628	5036_1PRL_Young_Final	5036	1	4	1	-25	0	1	595	5036_1PRL_Young_Final	5036	1	5	1	25	0	1	817	5036_1PRL_Young_Final	5036	1	6	1	25	0	1	437	5036_1PRL_Young_Final	5036	1	7	1	-25	0	1	472	5036_1PRL_Young_Final	5036	1	8	1	25	0	0	459	5036_1PRL_Young_Final	5036	1	9	1	-25	0	0	739	5036_1PRL_Young_Final	5036	1	10	1	-25	0	0	541	5036_1PRL_Young_Final	5036	1	11	1	-25	0	0	538	5036_1PRL_Young_Final	5036	1	12	2	25	1	1	1258	5036_1PRL_Young_Final	5036	1	13	2	25	0	1	441	5036_1PRL_Young_Final	5036	1	14	2	25	0	1	485	5036_1PRL_Young_Final	5036	1	15	2	25	0	1	463	5036_1PRL_Young_Final	5036	1	16	2	25	0	1	466	5036_1PRL_Young_Final	5036	1	17	2	-25	0	1	610	5036_1PRL_Young_Final	5036	1	18	2	-25	0	0	421	5036_1PRL_Young_Final	5036	1	19	2	-25	0	0	455	5036_1PRL_Young_Final	5036	1	20	2	-25	0	0	1076	5036_1PRL_Young_Final	5036	1	21	1	-25	1	1	653	5036_1PRL_Young_Final	5036	1	22	2	25	1	0	433	5036_1PRL_Young_Final	5036	1	23	2	25	0	0	406	5036_1PRL_Young_Final	5036	1	24	2	-25	0	0	468	5036_1PRL_Young_Final	5036	1	25	2	-25	0	0	422	5036_1PRL_Young_Final	5036	1	26	2	-25	0	0	352	5036_1PRL_Young_Final	5036	1	27	2	-25	0	0	265	5036_1PRL_Young_Final	5036	1	28	2	-25	0	0	475	5036_1PRL_Young_Final	5036	1	29	1	25	1	1	454	5036_1PRL_Young_Final	5036	1	30	1	25	0	1	310	5036_1PRL_Young_Final	5036	1	31	1	25	0	1	289	5036_1PRL_Young_Final	5036	1	32	1	25	0	1	330	5036_1PRL_Young_Final	5036	1	33	1	25	0	1	494	5036_1PRL_Young_Final	5036	1	34	1	25	0	1	305	5036_1PRL_Young_Final	5036	1	35	1	-25	0	1	478	5036_1PRL_Young_Final	5036	1	36	1	25	0	1	433	5036_1PRL_Young_Final	5036	1	37	1	-25	0	0	172	5036_1PRL_Young_Final	5036	1	38	1	25	0	0	400	5036_1PRL_Young_Final	5036	1	39	1	-25	0	0	402	5036_1PRL_Young_Final	5036	1	40	1	-25	0	0	195	5036_1PRL_Young_Final	5036	1	41	1	-25	0	0	333	5036_1PRL_Young_Final	5036	1	42	1	-25	0	0	197	5036_1PRL_Young_Final	5036	1	43	1	-25	0	0	281	5036_1PRL_Young_Final	5036	1	44	1	-25	0	0	85	5036_1PRL_Young_Final	5036	1	45	1	-25	0	0	160	5036_1PRL_Young_Final	5036	1	46	2	25	1	1	857	5036_1PRL_Young_Final	5036	1	47	2	25	0	1	598	5036_1PRL_Young_Final	5036	1	48	2	25	0	1	217	5036_1PRL_Young_Final	5036	1	49	2	25	0	1	93	5036_1PRL_Young_Final	5036	1	50	2	25	0	1	450	5036_1PRL_Young_Final	5036	1	51	2	25	0	0	459	5036_1PRL_Young_Final	5036	1	52	2	-25	0	0	514	5036_1PRL_Young_Final	5036	1	53	2	25	0	0	1401	5036_1PRL_Young_Final	5036	1	54	2	-25	0	0	503	5036_1PRL_Young_Final	5036	1	55	2	-25	0	0	116	5036_1PRL_Young_Final	5036	1	56	1	25	1	1	463	5036_1PRL_Young_Final	5036	1	57	1	-25	0	1	377	5036_1PRL_Young_Final	5036	1	58	1	25	0	1	447	5036_1PRL_Young_Final	5036	1	59	1	25	0	1	274	5036_1PRL_Young_Final	5036	1	60	1	-25	0	1	434	5036_1PRL_Young_Final	5036	1	61	1	25	0	1	251	5036_1PRL_Young_Final	5036	1	62	1	25	0	1	301	5036_1PRL_Young_Final	5036	1	63	1	25	0	1	319	5036_1PRL_Young_Final	5036	1	64	1	-25	0	0	24	5036_1PRL_Young_Final	5036	1	65	1	-25	0	0	219	5036_1PRL_Young_Final	5036	1	66	1	-25	0	0	463	5036_1PRL_Young_Final	5036	1	67	2	25	1	1	541	5036_1PRL_Young_Final	5036	1	68	2	25	0	1	243	5036_1PRL_Young_Final	5036	1	69	2	-25	0	1	109	5036_1PRL_Young_Final	5036	1	70	2	-25	0	1	415	5036_1PRL_Young_Final	5036	1	71	1	-25	1	0	557	5036_1PRL_Young_Final	5036	1	72	1	25	0	0	331	5036_1PRL_Young_Final	5036	1	73	1	25	0	0	495	5036_1PRL_Young_Final	5036	1	74	1	-25	0	0	216	5036_1PRL_Young_Final	5036	1	75	1	-25	0	0	356	5036_1PRL_Young_Final	5036	1	76	1	-25	0	0	417	5036_1PRL_Young_Final	5036	1	77	2	25	1	1	457	5036_1PRL_Young_Final	5036	1	78	2	25	0	1	490	5036_1PRL_Young_Final	5036	1	79	2	25	0	1	196	5036_1PRL_Young_Final	5036	1	80	2	25	0	1	452	5036_1PRL_Young_Final	5036	1	81	2	25	0	1	224	5036_1PRL_Young_Final	5036	1	82	2	25	0	1	583	5036_1PRL_Young_Final	5036	1	83	2	-25	0	1	500	5036_1PRL_Young_Final	5036	1	84	1	-25	1	0	1289	5036_1PRL_Young_Final	5036	1	85	2	25	1	1	604	5036_1PRL_Young_Final	5036	1	86	2	25	0	1	485	5036_1PRL_Young_Final	5036	1	87	2	25	0	1	513	5036_1PRL_Young_Final	5036	1	88	2	25	0	1	1284	5036_1PRL_Young_Final	5036	1	89	2	25	0	1	801	5036_1PRL_Young_Final	5036	1	90	2	-25	0	0	686	5036_1PRL_Young_Final	5036	1	91	1	25	1	1	1769	5036_1PRL_Young_Final	5036	1	92	1	25	0	1	301	5036_1PRL_Young_Final	5036	1	93	1	-25	0	1	402	5036_1PRL_Young_Final	5036	1	94	2	-25	1	0	1137	5036_1PRL_Young_Final	5036	1	95	1	25	1	1	591	5036_1PRL_Young_Final	5036	1	96	1	25	0	1	199	5036_1PRL_Young_Final	5036	1	97	1	-25	0	1	263	5036_1PRL_Young_Final	5036	1	98	2	25	1	0	678	5036_1PRL_Young_Final	5036	1	99	2	-25	0	0	434	5036_1PRL_Young_Final	5036	1	100	2	-25	0	0	1157	5036_1PRL_Young_Final	5036	1	101	2	-25	0	0	1457	5036_1PRL_Young_Final	5036	1	102	1	25	1	1	492	5036_1PRL_Young_Final	5036	1	103	1	25	0	1	1344	5036_1PRL_Young_Final	5036	1	104	1	25	0	1	586	5036_1PRL_Young_Final	5036	1	105	1	25	0	1	666	5036_1PRL_Young_Final	5036	1	106	1	25	0	1	710	5036_1PRL_Young_Final	5036	1	107	1	-25	0	1	449	5036_1PRL_Young_Final	5036	1	108	2	-25	1	1	1025	5036_1PRL_Young_Final	5036	1	109	1	-25	1	0	484	5036_1PRL_Young_Final	5036	1	110	1	-25	0	0	427	5036_1PRL_Young_Final	5036	1	111	1	-25	0	0	9	5036_1PRL_Young_Final	5036	1	112	2	25	1	1	225	5036_1PRL_Young_Final	5036	1	113	2	25	0	1	519	5036_1PRL_Young_Final	5036	1	114	2	25	0	1	457	5036_1PRL_Young_Final	5036	1	115	2	25	0	1	91	5036_1PRL_Young_Final	5036	1	116	2	25	0	1	268	5036_1PRL_Young_Final	5036	1	117	2	25	0	1	535	5036_1PRL_Young_Final	5036	1	118	2	-25	0	1	590	5036_1PRL_Young_Final	5036	1	119	1	-25	1	0	727	5036_1PRL_Young_Final	5036	1	120	2	25	1	1	980	5036_1PRL_Young_Final	5036	1	121	2	25	0	1	399	5036_1PRL_Young_Final	5036	1	122	2	25	0	1	386	5036_1PRL_Young_Final	5036	1	123	2	25	0	1	294	5036_1PRL_Young_Final	5036	1	124	2	25	0	1	1345	5036_1PRL_Young_Final	5036	1	125	2	25	0	1	555	5036_1PRL_Young_Final	5036	1	126	2	25	0	1	516	5036_1PRL_Young_Final	5036	1	127	2	-25	0	1	707	5036_1PRL_Young_Final	5036	1	128	2	25	0	0	496	5036_1PRL_Young_Final	5036	1	129	2	-25	0	0	487	5036_1PRL_Young_Final	5036	1	130	2	25	0	0	237	5036_1PRL_Young_Final	5036	1	131	2	-25	0	0	455	5036_1PRL_Young_Final	5036	1	132	2	-25	0	0	537	5036_1PRL_Young_Final	5036	1	133	2	-25	0	0	514	5036_1PRL_Young_Final	5036	1	134	2	-25	0	0	1835	5036_1PRL_Young_Final	5036	1	135	2	-25	0	0	456	5036_1PRL_Young_Final	5036	1	136	2	-25	0	0	534	5036_1PRL_Young_Final	5036	1	137	1	25	1	1	1129	5036_1PRL_Young_Final	5036	1	138	1	25	0	1	140	5036_1PRL_Young_Final	5036	1	139	1	-25	0	1	409	5036_1PRL_Young_Final	5036	1	140	1	25	0	1	210	5036_1PRL_Young_Final	5036	1	141	1	25	0	1	242	5036_1PRL_Young_Final	5036	1	142	1	25	0	0	57	5036_1PRL_Young_Final	5036	1	143	1	25	0	0	49	5036_1PRL_Young_Final	5036	1	144	1	-25	0	0	167	5036_1PRL_Young_Final	5036	1	145	1	-25	0	0	1150	5036_1PRL_Young_Final	5036	1	146	1	-25	0	0	272	5036_1PRL_Young_Final	5036	1	147	1	-25	0	0	448	5036_1PRL_Young_Final	5036	1	148	1	-25	0	0	112	5036_1PRL_Young_Final	5036	1	149	1	-25	0	0	697	5036_1PRL_Young_Final	5036	1	150	1	25	0	0	566	5036_1PRL_Young_Final	5036	1	151	1	-25	0	0	570	5036_1PRL_Young_Final	5036	1	152	1	-25	0	0	425	5036_1PRL_Young_Final	5036	1	153	1	-25	0	0	551	5036_1PRL_Young_Final	5036	1	154	2	25	1	1	382	5036_1PRL_Young_Final	5036	1	155	2	25	0	1	1614	5036_1PRL_Young_Final	5036	1	156	2	25	0	1	297	5036_1PRL_Young_Final	5036	1	157	2	-25	0	1	118	5036_1PRL_Young_Final	5036	1	158	2	-25	0	1	445	5036_1PRL_Young_Final	5036	1	159	2	25	0	1	145	5036_1PRL_Young_Final	5036	1	160	2	25	0	1	400	5036_1PRL_Young_Final	5036	1	161	2	-25	0	0	112	5036_1PRL_Young_Final	5036	1	162	1	25	1	1	491	5036_1PRL_Young_Final	5036	1	163	1	25	0	1	157	5036_1PRL_Young_Final	5036	1	164	1	25	0	1	433	5036_1PRL_Young_Final	5036	1	165	1	25	0	1	401	5036_1PRL_Young_Final	5036	1	166	1	-25	0	1	433	5036_1PRL_Young_Final	5036	1	167	2	25	1	1	484	5036_1PRL_Young_Final	5036	1	168	2	25	0	1	595	5036_1PRL_Young_Final	5036	1	169	2	25	0	1	422	5036_1PRL_Young_Final	5036	1	170	2	25	0	1	369	5036_1PRL_Young_Final	5036	1	171	2	25	0	1	411	5036_1PRL_Young_Final	5036	1	172	2	25	0	1	450	5036_1PRL_Young_Final	5036	1	173	2	25	0	1	161	5036_1PRL_Young_Final	5036	1	174	2	-25	0	1	1909	5036_1PRL_Young_Final	5036	1	175	1	25	1	1	1234	5036_1PRL_Young_Final	5036	1	176	1	25	0	1	477	5036_1PRL_Young_Final	5036	1	177	1	-25	0	1	406	5036_1PRL_Young_Final	5036	1	178	2	-25	1	0	495	5036_1PRL_Young_Final	5036	1	179	2	-25	0	0	475	5036_1PRL_Young_Final	5036	1	180	2	-25	0	0	776	5036_1PRL_Young_Final	5036	1	181	2	25	0	0	410	5036_1PRL_Young_Final	5036	1	182	2	-25	0	0	626	5036_1PRL_Young_Final	5036	1	183	2	25	0	0	2067	5036_1PRL_Young_Final	5036	1	184	2	-25	0	0	160	5036_1PRL_Young_Final	5036	1	185	2	-25	0	0	633	5036_1PRL_Young_Final	5036	1	186	2	-25	0	0	1419	5036_1PRL_Young_Final	5036	1	187	1	25	1	1	1555	5036_1PRL_Young_Final	5036	1	188	1	25	0	1	410	5036_1PRL_Young_Final	5036	1	189	1	25	0	1	542	5036_1PRL_Young_Final	5036	1	190	1	25	0	1	441	5036_1PRL_Young_Final	5036	1	191	1	25	0	1	189	5036_1PRL_Young_Final	5036	1	192	1	-25	0	0	395	5036_1PRL_Young_Final	5036	1	193	1	-25	0	0	130	5036_1PRL_Young_Final	5036	1	194	2	-25	1	1	67	5036_1PRL_Young_Final	5036	1	195	2	-25	0	1	55	5036_1PRL_Young_Final	5036	1	196	2	25	0	1	1132	5036_1PRL_Young_Final	5036	1	197	2	25	0	1	2044	5036_1PRL_Young_Final	5036	1	198	2	25	0	1	481	5036_1PRL_Young_Final	5036	1	199	2	-25	0	0	482	5036_1PRL_Young_Final	5036	1	200	2	25	0	0	950	5036_1PRL_Young_Final	5036	2	1	1	25	1	1	3389	5036_2PRL_Young_Final	5036	2	2	1	25	0	1	450	5036_2PRL_Young_Final	5036	2	3	1	25	0	1	452	5036_2PRL_Young_Final	5036	2	4	1	-25	0	1	400	5036_2PRL_Young_Final	5036	2	5	1	25	0	1	391	5036_2PRL_Young_Final	5036	2	6	1	25	0	1	2144	5036_2PRL_Young_Final	5036	2	7	1	25	0	1	429	5036_2PRL_Young_Final	5036	2	8	1	25	0	1	502	5036_2PRL_Young_Final	5036	2	9	1	25	0	0	372	5036_2PRL_Young_Final	5036	2	10	1	-25	0	0	107	5036_2PRL_Young_Final	5036	2	11	1	-25	0	0	486	5036_2PRL_Young_Final	5036	2	12	2	25	1	1	674	5036_2PRL_Young_Final	5036	2	13	2	25	0	1	478	5036_2PRL_Young_Final	5036	2	14	2	25	0	1	506	5036_2PRL_Young_Final	5036	2	15	2	-25	0	1	505	5036_2PRL_Young_Final	5036	2	16	2	25	0	1	285	5036_2PRL_Young_Final	5036	2	17	2	-25	0	0	485	5036_2PRL_Young_Final	5036	2	18	2	-25	0	0	497	5036_2PRL_Young_Final	5036	2	19	1	25	1	1	392	5036_2PRL_Young_Final	5036	2	20	1	-25	0	1	546	5036_2PRL_Young_Final	5036	2	21	1	25	0	1	107	5036_2PRL_Young_Final	5036	2	22	1	25	0	1	1539	5036_2PRL_Young_Final	5036	2	23	1	25	0	1	485	5036_2PRL_Young_Final	5036	2	24	1	25	0	1	490	5036_2PRL_Young_Final	5036	2	25	1	25	0	1	272	5036_2PRL_Young_Final	5036	2	26	1	-25	0	1	321	5036_2PRL_Young_Final	5036	2	27	2	-25	1	1	1991	5036_2PRL_Young_Final	5036	2	28	1	-25	1	0	1638	5036_2PRL_Young_Final	5036	2	29	2	25	1	1	968	5036_2PRL_Young_Final	5036	2	30	2	25	0	1	514	5036_2PRL_Young_Final	5036	2	31	2	25	0	1	508	5036_2PRL_Young_Final	5036	2	32	2	25	0	1	308	5036_2PRL_Young_Final	5036	2	33	2	25	0	1	311	5036_2PRL_Young_Final	5036	2	34	2	25	0	1	240	5036_2PRL_Young_Final	5036	2	35	2	-25	0	0	499	5036_2PRL_Young_Final	5036	2	36	2	25	0	0	880	5036_2PRL_Young_Final	5036	2	37	2	-25	0	0	42	5036_2PRL_Young_Final	5036	2	38	1	-25	1	1	1118	5036_2PRL_Young_Final	5036	2	39	1	25	0	1	2073	5036_2PRL_Young_Final	5036	2	40	1	25	0	1	1534	5036_2PRL_Young_Final	5036	2	41	1	25	0	1	1537	5036_2PRL_Young_Final	5036	2	42	1	25	0	1	1447	5036_2PRL_Young_Final	5036	2	43	1	25	0	1	392	5036_2PRL_Young_Final	5036	2	44	1	25	0	1	447	5036_2PRL_Young_Final	5036	2	45	1	25	0	1	1778	5036_2PRL_Young_Final	5036	2	46	1	-25	0	0	1085	5036_2PRL_Young_Final	5036	2	47	1	-25	0	0	1708	5036_2PRL_Young_Final	5036	2	48	2	-25	1	1	469	5036_2PRL_Young_Final	5036	2	49	2	25	0	1	1336	5036_2PRL_Young_Final	5036	2	50	2	25	0	1	723	5036_2PRL_Young_Final	5036	2	51	2	-25	0	1	507	5036_2PRL_Young_Final	5036	2	52	2	25	0	1	261	5036_2PRL_Young_Final	5036	2	53	2	25	0	1	506	5036_2PRL_Young_Final	5036	2	54	2	25	0	1	437	5036_2PRL_Young_Final	5036	2	55	2	-25	0	0	178	5036_2PRL_Young_Final	5036	2	56	2	-25	0	0	1540	5036_2PRL_Young_Final	5036	2	57	1	25	1	1	458	5036_2PRL_Young_Final	5036	2	58	1	25	0	1	445	5036_2PRL_Young_Final	5036	2	59	1	-25	0	1	506	5036_2PRL_Young_Final	5036	2	60	1	-25	0	1	300	5036_2PRL_Young_Final	5036	2	61	2	-25	1	0	1634	5036_2PRL_Young_Final	5036	2	62	2	-25	0	0	268	5036_2PRL_Young_Final	5036	2	63	2	25	0	0	408	5036_2PRL_Young_Final	5036	2	64	2	-25	0	0	525	5036_2PRL_Young_Final	5036	2	65	2	25	0	0	88	5036_2PRL_Young_Final	5036	2	66	2	-25	0	0	1491	5036_2PRL_Young_Final	5036	2	67	2	-25	0	0	815	5036_2PRL_Young_Final	5036	2	68	1	25	1	1	829	5036_2PRL_Young_Final	5036	2	69	1	25	0	1	459	5036_2PRL_Young_Final	5036	2	70	1	25	0	1	808	5036_2PRL_Young_Final	5036	2	71	1	25	0	1	798	5036_2PRL_Young_Final	5036	2	72	1	25	0	1	541	5036_2PRL_Young_Final	5036	2	73	1	25	0	1	710	5036_2PRL_Young_Final	5036	2	74	1	-25	0	1	629	5036_2PRL_Young_Final	5036	2	75	1	-25	0	0	547	5036_2PRL_Young_Final	5036	2	76	2	25	1	1	2264	5036_2PRL_Young_Final	5036	2	77	2	25	0	1	443	5036_2PRL_Young_Final	5036	2	78	2	25	0	1	569	5036_2PRL_Young_Final	5036	2	79	2	25	0	1	371	5036_2PRL_Young_Final	5036	2	80	2	25	0	1	495	5036_2PRL_Young_Final	5036	2	81	2	25	0	1	464	5036_2PRL_Young_Final	5036	2	82	2	25	0	1	24	5036_2PRL_Young_Final	5036	2	83	2	-25	0	1	517	5036_2PRL_Young_Final	5036	2	84	2	-25	0	0	562	5036_2PRL_Young_Final	5036	2	85	1	25	1	1	1933	5036_2PRL_Young_Final	5036	2	86	1	25	0	1	485	5036_2PRL_Young_Final	5036	2	87	1	-25	0	1	79	5036_2PRL_Young_Final	5036	2	88	1	25	0	1	874	5036_2PRL_Young_Final	5036	2	89	1	25	0	1	125	5036_2PRL_Young_Final	5036	2	90	1	25	0	1	602	5036_2PRL_Young_Final	5036	2	91	1	25	0	1	622	5036_2PRL_Young_Final	5036	2	92	1	25	0	1	425	5036_2PRL_Young_Final	5036	2	93	1	-25	0	0	512	5036_2PRL_Young_Final	5036	2	94	1	-25	0	0	318	5036_2PRL_Young_Final	5036	2	95	2	-25	1	1	654	5036_2PRL_Young_Final	5036	2	96	2	-25	0	1	83	5036_2PRL_Young_Final	5036	2	97	2	25	0	1	195	5036_2PRL_Young_Final	5036	2	98	2	25	0	1	301	5036_2PRL_Young_Final	5036	2	99	2	25	0	1	201	5036_2PRL_Young_Final	5036	2	100	2	25	0	0	498	5036_2PRL_Young_Final	5036	2	101	2	25	0	0	467	5036_2PRL_Young_Final	5036	2	102	2	-25	0	0	521	5036_2PRL_Young_Final	5036	2	103	2	-25	0	0	529	5036_2PRL_Young_Final	5036	2	104	2	-25	0	0	252	5036_2PRL_Young_Final	5036	2	105	1	25	1	1	424	5036_2PRL_Young_Final	5036	2	106	1	25	0	1	448	5036_2PRL_Young_Final	5036	2	107	1	25	0	1	403	5036_2PRL_Young_Final	5036	2	108	1	-25	0	1	130	5036_2PRL_Young_Final	5036	2	109	1	25	0	1	200	5036_2PRL_Young_Final	5036	2	110	1	-25	0	0	308	5036_2PRL_Young_Final	5036	2	111	1	-25	0	0	566	5036_2PRL_Young_Final	5036	2	112	2	25	1	1	196	5036_2PRL_Young_Final	5036	2	113	2	25	0	1	387	5036_2PRL_Young_Final	5036	2	114	2	25	0	1	1008	5036_2PRL_Young_Final	5036	2	115	2	25	0	1	1355	5036_2PRL_Young_Final	5036	2	116	2	25	0	1	153	5036_2PRL_Young_Final	5036	2	117	2	25	0	1	319	5036_2PRL_Young_Final	5036	2	118	2	-25	0	1	453	5036_2PRL_Young_Final	5036	2	119	2	25	0	1	228	5036_2PRL_Young_Final	5036	2	120	2	-25	0	0	1982	5036_2PRL_Young_Final	5036	2	121	2	25	0	0	247	5036_2PRL_Young_Final	5036	2	122	2	-25	0	0	1437	5036_2PRL_Young_Final	5036	2	123	2	-25	0	0	287	5036_2PRL_Young_Final	5036	2	124	2	-25	0	0	898	5036_2PRL_Young_Final	5036	2	125	2	-25	0	0	451	5036_2PRL_Young_Final	5036	2	126	1	25	1	1	416	5036_2PRL_Young_Final	5036	2	127	1	-25	0	1	1363	5036_2PRL_Young_Final	5036	2	128	1	25	0	1	383	5036_2PRL_Young_Final	5036	2	129	1	25	0	1	508	5036_2PRL_Young_Final	5036	2	130	1	25	0	1	562	5036_2PRL_Young_Final	5036	2	131	1	25	0	1	546	5036_2PRL_Young_Final	5036	2	132	1	-25	0	0	162	5036_2PRL_Young_Final	5036	2	133	1	-25	0	0	88	5036_2PRL_Young_Final	5036	2	134	2	25	1	1	560	5036_2PRL_Young_Final	5036	2	135	2	-25	0	1	730	5036_2PRL_Young_Final	5036	2	136	2	-25	0	1	163	5036_2PRL_Young_Final	5036	2	137	1	-25	1	0	1807	5036_2PRL_Young_Final	5036	2	138	1	25	0	0	506	5036_2PRL_Young_Final	5036	2	139	1	-25	0	0	521	5036_2PRL_Young_Final	5036	2	140	1	25	0	0	350	5036_2PRL_Young_Final	5036	2	141	1	-25	0	0	73	5036_2PRL_Young_Final	5036	2	142	2	25	1	1	600	5036_2PRL_Young_Final	5036	2	143	2	25	0	1	441	5036_2PRL_Young_Final	5036	2	144	2	25	0	1	131	5036_2PRL_Young_Final	5036	2	145	2	25	0	1	360	5036_2PRL_Young_Final	5036	2	146	2	25	0	1	553	5036_2PRL_Young_Final	5036	2	147	2	25	0	1	36	5036_2PRL_Young_Final	5036	2	148	2	-25	0	1	460	5036_2PRL_Young_Final	5036	2	149	1	-25	1	0	1844	5036_2PRL_Young_Final	5036	2	150	2	25	1	1	761	5036_2PRL_Young_Final	5036	2	151	2	25	0	1	334	5036_2PRL_Young_Final	5036	2	152	2	25	0	1	407	5036_2PRL_Young_Final	5036	2	153	2	25	0	1	255	5036_2PRL_Young_Final	5036	2	154	2	25	0	1	1566	5036_2PRL_Young_Final	5036	2	155	2	25	0	1	656	5036_2PRL_Young_Final	5036	2	156	2	25	0	1	514	5036_2PRL_Young_Final	5036	2	157	2	-25	0	1	111	5036_2PRL_Young_Final	5036	2	158	1	25	1	1	1447	5036_2PRL_Young_Final	5036	2	159	1	25	0	1	494	5036_2PRL_Young_Final	5036	2	160	1	-25	0	1	629	5036_2PRL_Young_Final	5036	2	161	1	25	0	1	973	5036_2PRL_Young_Final	5036	2	162	1	25	0	1	183	5036_2PRL_Young_Final	5036	2	163	1	-25	0	0	75	5036_2PRL_Young_Final	5036	2	164	2	25	1	1	1017	5036_2PRL_Young_Final	5036	2	165	2	25	0	1	513	5036_2PRL_Young_Final	5036	2	166	2	25	0	1	1553	5036_2PRL_Young_Final	5036	2	167	2	-25	0	1	920	5036_2PRL_Young_Final	5036	2	168	2	-25	0	1	509	5036_2PRL_Young_Final	5036	2	169	1	-25	1	0	1115	5036_2PRL_Young_Final	5036	2	170	1	-25	0	0	409	5036_2PRL_Young_Final	5036	2	171	2	25	1	1	737	5036_2PRL_Young_Final	5036	2	172	2	25	0	1	19	5036_2PRL_Young_Final	5036	2	173	2	25	0	1	556	5036_2PRL_Young_Final	5036	2	174	2	25	0	1	461	5036_2PRL_Young_Final	5036	2	175	2	25	0	1	740	5036_2PRL_Young_Final	5036	2	176	2	25	0	1	483	5036_2PRL_Young_Final	5036	2	177	2	-25	0	1	488	5036_2PRL_Young_Final	5036	2	178	2	25	0	1	143	5036_2PRL_Young_Final	5036	2	179	2	-25	0	0	701	5036_2PRL_Young_Final	5036	2	180	1	25	1	1	1436	5036_2PRL_Young_Final	5036	2	181	1	25	0	1	471	5036_2PRL_Young_Final	5036	2	182	1	25	0	1	213	5036_2PRL_Young_Final	5036	2	183	1	25	0	1	377	5036_2PRL_Young_Final	5036	2	184	1	25	0	1	490	5036_2PRL_Young_Final	5036	2	185	1	25	0	1	631	5036_2PRL_Young_Final	5036	2	186	1	25	0	0	245	5036_2PRL_Young_Final	5036	2	187	1	25	0	0	995	5036_2PRL_Young_Final	5036	2	188	1	-25	0	0	974	5036_2PRL_Young_Final	5036	2	189	2	-25	1	1	1840	5036_2PRL_Young_Final	5036	2	190	1	-25	1	0	1510	5036_2PRL_Young_Final	5036	2	191	1	-25	0	0	412	5036_2PRL_Young_Final	5036	2	192	2	25	1	1	377	5036_2PRL_Young_Final	5036	2	193	2	25	0	1	160	5036_2PRL_Young_Final	5036	2	194	2	-25	0	1	410	5036_2PRL_Young_Final	5036	2	195	2	25	0	1	82	5036_2PRL_Young_Final	5036	2	196	2	25	0	1	509	5036_2PRL_Young_Final	5036	2	197	2	25	0	1	430	5036_2PRL_Young_Final	5036	2	198	2	-25	0	0	414	5036_2PRL_Young_Final	5036	2	199	1	25	1	1	282	5036_2PRL_Young_Final	5036	2	200	1	25	0	1	400	5036_2PRL_Young_Final	5036	3	1	1	-25	0	1	2267	5036_3PRL_Young_Final	5036	3	2	1	-25	0	1	628	5036_3PRL_Young_Final	5036	3	3	2	-25	1	0	1419	5036_3PRL_Young_Final	5036	3	4	2	-25	0	0	940	5036_3PRL_Young_Final	5036	3	5	2	25	0	0	556	5036_3PRL_Young_Final	5036	3	6	2	-25	0	0	378	5036_3PRL_Young_Final	5036	3	7	2	-25	0	0	304	5036_3PRL_Young_Final	5036	3	8	2	-25	0	0	819	5036_3PRL_Young_Final	5036	3	9	1	25	1	1	770	5036_3PRL_Young_Final	5036	3	10	1	25	0	1	1243	5036_3PRL_Young_Final	5036	3	11	1	25	0	1	587	5036_3PRL_Young_Final	5036	3	12	1	25	0	1	109	5036_3PRL_Young_Final	5036	3	13	1	25	0	1	710	5036_3PRL_Young_Final	5036	3	14	1	-25	0	0	446	5036_3PRL_Young_Final	5036	3	15	1	-25	0	0	174	5036_3PRL_Young_Final	5036	3	16	1	-25	0	0	946	5036_3PRL_Young_Final	5036	3	17	2	25	1	1	453	5036_3PRL_Young_Final	5036	3	18	2	-25	0	1	496	5036_3PRL_Young_Final	5036	3	19	2	25	0	1	447	5036_3PRL_Young_Final	5036	3	20	2	25	0	1	464	5036_3PRL_Young_Final	5036	3	21	2	25	0	1	263	5036_3PRL_Young_Final	5036	3	22	2	25	0	1	321	5036_3PRL_Young_Final	5036	3	23	2	25	0	1	326	5036_3PRL_Young_Final	5036	3	24	2	-25	0	0	421	5036_3PRL_Young_Final	5036	3	25	1	25	1	1	801	5036_3PRL_Young_Final	5036	3	26	1	25	0	1	452	5036_3PRL_Young_Final	5036	3	27	1	-25	0	1	510	5036_3PRL_Young_Final	5036	3	28	1	25	0	1	490	5036_3PRL_Young_Final	5036	3	29	1	25	0	1	464	5036_3PRL_Young_Final	5036	3	30	1	25	0	0	476	5036_3PRL_Young_Final	5036	3	31	1	-25	0	0	610	5036_3PRL_Young_Final	5036	3	32	2	-25	1	1	877	5036_3PRL_Young_Final	5036	3	33	2	25	0	1	769	5036_3PRL_Young_Final	5036	3	34	2	25	0	1	1131	5036_3PRL_Young_Final	5036	3	35	2	25	0	1	512	5036_3PRL_Young_Final	5036	3	36	2	25	0	1	465	5036_3PRL_Young_Final	5036	3	37	2	25	0	1	486	5036_3PRL_Young_Final	5036	3	38	2	-25	0	1	669	5036_3PRL_Young_Final	5036	3	39	2	-25	0	1	949	5036_3PRL_Young_Final	5036	3	40	1	25	1	1	830	5036_3PRL_Young_Final	5036	3	41	1	25	0	1	490	5036_3PRL_Young_Final	5036	3	42	1	25	0	1	229	5036_3PRL_Young_Final	5036	3	43	1	25	0	1	331	5036_3PRL_Young_Final	5036	3	44	1	25	0	1	462	5036_3PRL_Young_Final	5036	3	45	1	25	0	1	272	5036_3PRL_Young_Final	5036	3	46	1	25	0	0	1480	5036_3PRL_Young_Final	5036	3	47	1	-25	0	0	562	5036_3PRL_Young_Final	5036	3	48	1	-25	0	0	908	5036_3PRL_Young_Final	5036	3	49	2	-25	1	1	467	5036_3PRL_Young_Final	5036	3	50	2	25	0	1	392	5036_3PRL_Young_Final	5036	3	51	2	25	0	1	457	5036_3PRL_Young_Final	5036	3	52	2	25	0	1	667	5036_3PRL_Young_Final	5036	3	53	2	25	0	1	576	5036_3PRL_Young_Final	5036	3	54	2	-25	0	0	196	5036_3PRL_Young_Final	5036	3	55	2	-25	0	0	213	5036_3PRL_Young_Final	5036	3	56	1	25	1	1	867	5036_3PRL_Young_Final	5036	3	57	1	25	0	1	183	5036_3PRL_Young_Final	5036	3	58	1	25	0	1	403	5036_3PRL_Young_Final	5036	3	59	1	-25	0	1	460	5036_3PRL_Young_Final	5036	3	60	1	25	0	1	747	5036_3PRL_Young_Final	5036	3	61	1	25	0	1	758	5036_3PRL_Young_Final	5036	3	62	1	-25	0	0	62	5036_3PRL_Young_Final	5036	3	63	1	-25	0	0	715	5036_3PRL_Young_Final	5036	3	64	1	25	0	0	231	5036_3PRL_Young_Final	5036	3	65	1	25	0	0	458	5036_3PRL_Young_Final	5036	3	66	1	-25	0	0	487	5036_3PRL_Young_Final	5036	3	67	1	-25	0	0	59	5036_3PRL_Young_Final	5036	3	68	2	-25	1	1	52	5036_3PRL_Young_Final	5036	3	69	2	25	0	1	789	5036_3PRL_Young_Final	5036	3	70	2	25	0	1	432	5036_3PRL_Young_Final	5036	3	71	2	25	0	1	759	5036_3PRL_Young_Final	5036	3	72	2	25	0	1	3790	5036_3PRL_Young_Final	5036	3	73	2	-25	0	0	638	5036_3PRL_Young_Final	5036	3	74	2	-25	0	0	1516	5036_3PRL_Young_Final	5036	3	75	1	25	1	1	759	5036_3PRL_Young_Final	5036	3	76	1	-25	0	1	455	5036_3PRL_Young_Final	5036	3	77	1	-25	0	1	582	5036_3PRL_Young_Final	5036	3	78	1	25	0	1	133	5036_3PRL_Young_Final	5036	3	79	1	25	0	1	456	5036_3PRL_Young_Final	5036	3	80	1	25	0	1	619	5036_3PRL_Young_Final	5036	3	81	1	25	0	1	513	5036_3PRL_Young_Final	5036	3	82	1	25	0	1	985	5036_3PRL_Young_Final	5036	3	83	1	-25	0	0	134	5036_3PRL_Young_Final	5036	3	84	1	-25	0	0	569	5036_3PRL_Young_Final	5036	3	85	2	25	1	1	473	5036_3PRL_Young_Final	5036	3	86	2	-25	0	1	891	5036_3PRL_Young_Final	5036	3	87	2	25	0	1	487	5036_3PRL_Young_Final	5036	3	88	2	25	0	1	333	5036_3PRL_Young_Final	5036	3	89	2	25	0	1	424	5036_3PRL_Young_Final	5036	3	90	2	25	0	1	474	5036_3PRL_Young_Final	5036	3	91	2	25	0	1	407	5036_3PRL_Young_Final	5036	3	92	2	25	0	1	236	5036_3PRL_Young_Final	5036	3	93	2	25	0	0	57	5036_3PRL_Young_Final	5036	3	94	2	-25	0	0	785	5036_3PRL_Young_Final	5036	3	95	1	25	1	1	933	5036_3PRL_Young_Final	5036	3	96	1	-25	0	1	522	5036_3PRL_Young_Final	5036	3	97	1	25	0	1	243	5036_3PRL_Young_Final	5036	3	98	1	25	0	1	58	5036_3PRL_Young_Final	5036	3	99	1	-25	0	1	498	5036_3PRL_Young_Final	5036	3	100	2	-25	1	0	587	5036_3PRL_Young_Final	5036	3	101	2	-25	0	0	89	5036_3PRL_Young_Final	5036	3	102	2	-25	0	0	201	5036_3PRL_Young_Final	5036	3	103	1	25	1	1	446	5036_3PRL_Young_Final	5036	3	104	1	25	0	1	540	5036_3PRL_Young_Final	5036	3	105	1	25	0	1	507	5036_3PRL_Young_Final	5036	3	106	1	25	0	1	432	5036_3PRL_Young_Final	5036	3	107	1	25	0	1	525	5036_3PRL_Young_Final	5036	3	108	1	-25	0	1	47	5036_3PRL_Young_Final	5036	3	109	1	-25	0	1	210	5036_3PRL_Young_Final	5036	3	110	2	25	1	1	661	5036_3PRL_Young_Final	5036	3	111	2	25	0	1	225	5036_3PRL_Young_Final	5036	3	112	2	25	0	1	443	5036_3PRL_Young_Final	5036	3	113	2	25	0	1	289	5036_3PRL_Young_Final	5036	3	114	2	25	0	1	596	5036_3PRL_Young_Final	5036	3	115	2	-25	0	0	505	5036_3PRL_Young_Final	5036	3	116	2	-25	0	0	649	5036_3PRL_Young_Final	5036	3	117	1	25	1	1	1022	5036_3PRL_Young_Final	5036	3	118	1	-25	0	1	1342	5036_3PRL_Young_Final	5036	3	119	1	25	0	1	354	5036_3PRL_Young_Final	5036	3	120	1	25	0	1	1119	5036_3PRL_Young_Final	5036	3	121	1	25	0	1	911	5036_3PRL_Young_Final	5036	3	122	1	25	0	1	2367	5036_3PRL_Young_Final	5036	3	123	1	25	0	1	834	5036_3PRL_Young_Final	5036	3	124	1	25	0	1	1194	5036_3PRL_Young_Final	5036	3	125	1	-25	0	0	2371	5036_3PRL_Young_Final	5036	3	126	1	25	0	0	2397	5036_3PRL_Young_Final	5036	3	127	1	-25	0	0	313	5036_3PRL_Young_Final	5036	3	128	1	25	0	0	547	5036_3PRL_Young_Final	5036	3	129	1	-25	0	0	1113	5036_3PRL_Young_Final	5036	3	130	1	-25	0	0	283	5036_3PRL_Young_Final	5036	3	131	2	25	1	1	73	5036_3PRL_Young_Final	5036	3	132	2	-25	0	1	2660	5036_3PRL_Young_Final	5036	3	133	2	25	0	1	426	5036_3PRL_Young_Final	5036	3	134	2	25	0	1	950	5036_3PRL_Young_Final	5036	3	135	2	-25	0	1	744	5036_3PRL_Young_Final	5036	3	136	2	25	0	1	637	5036_3PRL_Young_Final	5036	3	137	2	-25	0	0	1133	5036_3PRL_Young_Final	5036	3	138	1	25	1	1	1031	5036_3PRL_Young_Final	5036	3	139	1	25	0	1	540	5036_3PRL_Young_Final	5036	3	140	1	25	0	1	447	5036_3PRL_Young_Final	5036	3	141	1	25	0	1	594	5036_3PRL_Young_Final	5036	3	142	1	-25	0	1	400	5036_3PRL_Young_Final	5036	3	143	1	-25	0	1	509	5036_3PRL_Young_Final	5036	3	144	2	-25	1	0	1377	5036_3PRL_Young_Final	5036	3	145	2	-25	0	0	503	5036_3PRL_Young_Final	5036	3	146	1	25	1	1	861	5036_3PRL_Young_Final	5036	3	147	1	25	0	1	457	5036_3PRL_Young_Final	5036	3	148	1	25	0	1	486	5036_3PRL_Young_Final	5036	3	149	1	25	0	1	470	5036_3PRL_Young_Final	5036	3	150	1	25	0	1	438	5036_3PRL_Young_Final	5036	3	151	1	25	0	1	977	5036_3PRL_Young_Final	5036	3	152	1	-25	0	1	762	5036_3PRL_Young_Final	5036	3	153	1	25	0	1	1138	5036_3PRL_Young_Final	5036	3	154	1	-25	0	0	578	5036_3PRL_Young_Final	5036	3	155	2	25	1	1	754	5036_3PRL_Young_Final	5036	3	156	2	25	0	1	482	5036_3PRL_Young_Final	5036	3	157	2	25	0	1	447	5036_3PRL_Young_Final	5036	3	158	2	25	0	1	952	5036_3PRL_Young_Final	5036	3	159	2	25	0	1	1078	5036_3PRL_Young_Final	5036	3	160	2	25	0	1	934	5036_3PRL_Young_Final	5036	3	161	2	-25	0	1	481	5036_3PRL_Young_Final	5036	3	162	2	25	0	0	563	5036_3PRL_Young_Final	5036	3	163	2	25	0	0	699	5036_3PRL_Young_Final	5036	3	164	2	-25	0	0	509	5036_3PRL_Young_Final	5036	3	165	1	25	1	1	1000	5036_3PRL_Young_Final	5036	3	166	1	25	0	1	488	5036_3PRL_Young_Final	5036	3	167	1	-25	0	1	1019	5036_3PRL_Young_Final	5036	3	168	1	25	0	1	613	5036_3PRL_Young_Final	5036	3	169	1	25	0	1	470	5036_3PRL_Young_Final	5036	3	170	1	25	0	1	436	5036_3PRL_Young_Final	5036	3	171	1	-25	0	0	269	5036_3PRL_Young_Final	5036	3	172	2	25	1	1	1473	5036_3PRL_Young_Final	5036	3	173	2	25	0	1	458	5036_3PRL_Young_Final	5036	3	174	2	-25	0	1	433	5036_3PRL_Young_Final	5036	3	175	2	-25	0	1	556	5036_3PRL_Young_Final	5036	3	176	1	-25	1	0	532	5036_3PRL_Young_Final	5036	3	177	1	-25	0	0	395	5036_3PRL_Young_Final	5036	3	178	1	-25	0	0	393	5036_3PRL_Young_Final	5036	3	179	2	25	1	1	421	5036_3PRL_Young_Final	5036	3	180	2	25	0	1	342	5036_3PRL_Young_Final	5036	3	181	2	25	0	1	436	5036_3PRL_Young_Final	5036	3	182	2	25	0	1	126	5036_3PRL_Young_Final	5036	3	183	2	25	0	1	533	5036_3PRL_Young_Final	5036	3	184	2	-25	0	0	474	5036_3PRL_Young_Final	5036	3	185	2	25	0	0	524	5036_3PRL_Young_Final	5036	3	186	2	-25	0	0	805	5036_3PRL_Young_Final	5036	3	187	1	25	1	1	1009	5036_3PRL_Young_Final	5036	3	188	1	-25	0	1	490	5036_3PRL_Young_Final	5036	3	189	1	25	0	1	795	5036_3PRL_Young_Final	5036	3	190	1	25	0	1	487	5036_3PRL_Young_Final	5036	3	191	1	25	0	1	946	5036_3PRL_Young_Final	5036	3	192	1	25	0	1	1127	5036_3PRL_Young_Final	5036	3	193	1	-25	0	0	677	5036_3PRL_Young_Final	5036	3	194	1	-25	0	0	782	5036_3PRL_Young_Final	5036	3	195	2	25	1	1	521	5036_3PRL_Young_Final	5036	3	196	2	25	0	1	480	5036_3PRL_Young_Final	5036	3	197	2	25	0	1	450	5036_3PRL_Young_Final	5036	3	198	2	-25	0	1	429	5036_3PRL_Young_Final	5036	3	199	2	25	0	1	585	5036_3PRL_Young_Final	5036	3	200	2	-25	0	0	102	5036_3PRL_Young_Final	5035	1	1	1	25	0	0	753	5035_1PRL_Young_Final	5035	1	2	1	-25	0	0	321	5035_1PRL_Young_Final	5035	1	3	1	-25	0	0	283	5035_1PRL_Young_Final	5035	1	4	2	25	1	1	300	5035_1PRL_Young_Final	5035	1	5	2	25	0	1	337	5035_1PRL_Young_Final	5035	1	6	2	-25	0	1	285	5035_1PRL_Young_Final	5035	1	7	2	25	0	1	363	5035_1PRL_Young_Final	5035	1	8	2	25	0	1	281	5035_1PRL_Young_Final	5035	1	9	2	-25	0	0	287	5035_1PRL_Young_Final	5035	1	10	1	-25	1	1	310	5035_1PRL_Young_Final	5035	1	11	2	-25	1	0	906	5035_1PRL_Young_Final	5035	1	12	2	-25	0	0	584	5035_1PRL_Young_Final	5035	1	13	1	25	1	1	239	5035_1PRL_Young_Final	5035	1	14	1	25	0	1	273	5035_1PRL_Young_Final	5035	1	15	1	25	0	1	698	5035_1PRL_Young_Final	5035	1	16	1	25	0	1	365	5035_1PRL_Young_Final	5035	1	17	1	25	0	1	295	5035_1PRL_Young_Final	5035	1	18	1	-25	0	0	305	5035_1PRL_Young_Final	5035	1	19	1	25	0	0	284	5035_1PRL_Young_Final	5035	1	20	1	25	0	0	278	5035_1PRL_Young_Final	5035	1	21	1	-25	0	0	276	5035_1PRL_Young_Final	5035	1	22	1	-25	0	0	239	5035_1PRL_Young_Final	5035	1	23	2	-25	1	1	342	5035_1PRL_Young_Final	5035	1	24	2	-25	0	1	536	5035_1PRL_Young_Final	5035	1	25	1	-25	1	0	464	5035_1PRL_Young_Final	5035	1	26	1	-25	0	0	277	5035_1PRL_Young_Final	5035	1	27	1	-25	0	0	412	5035_1PRL_Young_Final	5035	1	28	2	25	1	1	371	5035_1PRL_Young_Final	5035	1	29	2	25	0	1	311	5035_1PRL_Young_Final	5035	1	30	2	25	0	1	303	5035_1PRL_Young_Final	5035	1	31	2	25	0	1	410	5035_1PRL_Young_Final	5035	1	32	2	25	0	1	293	5035_1PRL_Young_Final	5035	1	33	2	25	0	1	706	5035_1PRL_Young_Final	5035	1	34	2	-25	0	1	484	5035_1PRL_Young_Final	5035	1	35	2	25	0	1	349	5035_1PRL_Young_Final	5035	1	36	2	-25	0	0	482	5035_1PRL_Young_Final	5035	1	37	2	25	0	0	649	5035_1PRL_Young_Final	5035	1	38	2	-25	0	0	543	5035_1PRL_Young_Final	5035	1	39	2	-25	0	0	419	5035_1PRL_Young_Final	5035	1	40	1	25	1	1	337	5035_1PRL_Young_Final	5035	1	41	1	25	0	1	331	5035_1PRL_Young_Final	5035	1	42	1	25	0	1	654	5035_1PRL_Young_Final	5035	1	43	1	25	0	1	301	5035_1PRL_Young_Final	5035	1	44	1	25	0	1	278	5035_1PRL_Young_Final	5035	1	45	1	-25	0	0	610	5035_1PRL_Young_Final	5035	1	46	1	-25	0	0	427	5035_1PRL_Young_Final	5035	1	47	2	25	1	1	336	5035_1PRL_Young_Final	5035	1	48	2	-25	0	1	271	5035_1PRL_Young_Final	5035	1	49	2	25	0	1	244	5035_1PRL_Young_Final	5035	1	50	2	25	0	1	577	5035_1PRL_Young_Final	5035	1	51	2	-25	0	1	291	5035_1PRL_Young_Final	5035	1	52	2	25	0	1	653	5035_1PRL_Young_Final	5035	1	53	2	25	0	1	327	5035_1PRL_Young_Final	5035	1	54	2	-25	0	0	306	5035_1PRL_Young_Final	5035	1	55	2	-25	0	0	295	5035_1PRL_Young_Final	5035	1	56	1	25	1	1	294	5035_1PRL_Young_Final	5035	1	57	1	25	0	1	350	5035_1PRL_Young_Final	5035	1	58	1	25	0	1	737	5035_1PRL_Young_Final	5035	1	59	1	-25	0	1	577	5035_1PRL_Young_Final	5035	1	60	1	-25	0	1	331	5035_1PRL_Young_Final	5035	1	61	2	-25	1	0	271	5035_1PRL_Young_Final	5035	1	62	2	25	0	0	381	5035_1PRL_Young_Final	5035	1	63	2	-25	0	0	332	5035_1PRL_Young_Final	5035	1	64	2	25	0	0	425	5035_1PRL_Young_Final	5035	1	65	2	-25	0	0	290	5035_1PRL_Young_Final	5035	1	66	2	-25	0	0	300	5035_1PRL_Young_Final	5035	1	67	1	25	1	1	625	5035_1PRL_Young_Final	5035	1	68	1	25	0	1	834	5035_1PRL_Young_Final	5035	1	69	1	25	0	1	448	5035_1PRL_Young_Final	5035	1	70	1	25	0	1	348	5035_1PRL_Young_Final	5035	1	71	1	25	0	1	367	5035_1PRL_Young_Final	5035	1	72	1	-25	0	0	296	5035_1PRL_Young_Final	5035	1	73	1	-25	0	0	624	5035_1PRL_Young_Final	5035	1	74	2	25	1	1	371	5035_1PRL_Young_Final	5035	1	75	2	-25	0	1	282	5035_1PRL_Young_Final	5035	1	76	2	25	0	1	302	5035_1PRL_Young_Final	5035	1	77	2	25	0	1	647	5035_1PRL_Young_Final	5035	1	78	2	25	0	1	374	5035_1PRL_Young_Final	5035	1	79	2	25	0	1	461	5035_1PRL_Young_Final	5035	1	80	2	25	0	1	260	5035_1PRL_Young_Final	5035	1	81	2	-25	0	0	342	5035_1PRL_Young_Final	5035	1	82	2	-25	0	0	438	5035_1PRL_Young_Final	5035	1	83	1	25	1	1	290	5035_1PRL_Young_Final	5035	1	84	1	25	0	1	350	5035_1PRL_Young_Final	5035	1	85	1	-25	0	1	202	5035_1PRL_Young_Final	5035	1	86	1	25	0	1	333	5035_1PRL_Young_Final	5035	1	87	1	25	0	1	687	5035_1PRL_Young_Final	5035	1	88	1	25	0	0	280	5035_1PRL_Young_Final	5035	1	89	1	25	0	0	358	5035_1PRL_Young_Final	5035	1	90	1	-25	0	0	570	5035_1PRL_Young_Final	5035	1	91	1	-25	0	0	632	5035_1PRL_Young_Final	5035	1	92	2	-25	1	1	334	5035_1PRL_Young_Final	5035	1	93	2	25	0	1	546	5035_1PRL_Young_Final	5035	1	94	2	25	0	1	649	5035_1PRL_Young_Final	5035	1	95	2	25	0	1	570	5035_1PRL_Young_Final	5035	1	96	2	25	0	1	651	5035_1PRL_Young_Final	5035	1	97	2	25	0	1	598	5035_1PRL_Young_Final	5035	1	98	2	-25	0	0	548	5035_1PRL_Young_Final	5035	1	99	2	-25	0	0	505	5035_1PRL_Young_Final	5035	1	100	1	-25	1	1	305	5035_1PRL_Young_Final	5035	1	101	1	-25	0	1	489	5035_1PRL_Young_Final	5035	1	102	2	-25	1	0	250	5035_1PRL_Young_Final	5035	1	103	2	-25	0	0	311	5035_1PRL_Young_Final	5035	1	104	1	25	1	1	342	5035_1PRL_Young_Final	5035	1	105	1	25	0	1	305	5035_1PRL_Young_Final	5035	1	106	1	25	0	1	310	5035_1PRL_Young_Final	5035	1	107	1	25	0	1	251	5035_1PRL_Young_Final	5035	1	108	1	25	0	1	254	5035_1PRL_Young_Final	5035	1	109	1	25	0	1	561	5035_1PRL_Young_Final	5035	1	110	1	25	0	0	287	5035_1PRL_Young_Final	5035	1	111	1	-25	0	0	261	5035_1PRL_Young_Final	5035	1	112	1	-25	0	0	276	5035_1PRL_Young_Final	5035	1	113	1	-25	0	0	74	5035_1PRL_Young_Final	5035	1	114	2	-25	1	1	257	5035_1PRL_Young_Final	5035	1	115	2	25	0	1	593	5035_1PRL_Young_Final	5035	1	116	2	25	0	1	565	5035_1PRL_Young_Final	5035	1	117	2	25	0	1	276	5035_1PRL_Young_Final	5035	1	118	2	25	0	1	614	5035_1PRL_Young_Final	5035	1	119	2	25	0	1	290	5035_1PRL_Young_Final	5035	1	120	2	25	0	1	385	5035_1PRL_Young_Final	5035	1	121	2	25	0	1	280	5035_1PRL_Young_Final	5035	1	122	2	-25	0	0	426	5035_1PRL_Young_Final	5035	1	123	2	-25	0	0	278	5035_1PRL_Young_Final	5035	1	124	2	-25	0	0	298	5035_1PRL_Young_Final	5035	1	125	1	-25	1	1	283	5035_1PRL_Young_Final	5035	1	126	1	25	0	1	338	5035_1PRL_Young_Final	5035	1	127	1	25	0	1	284	5035_1PRL_Young_Final	5035	1	128	1	-25	0	1	316	5035_1PRL_Young_Final	5035	1	129	1	25	0	1	287	5035_1PRL_Young_Final	5035	1	130	1	25	0	1	259	5035_1PRL_Young_Final	5035	1	131	1	-25	0	0	293	5035_1PRL_Young_Final	5035	1	132	1	25	0	0	301	5035_1PRL_Young_Final	5035	1	133	1	-25	0	0	360	5035_1PRL_Young_Final	5035	1	134	1	25	0	0	285	5035_1PRL_Young_Final	5035	1	135	1	-25	0	0	308	5035_1PRL_Young_Final	5035	1	136	1	-25	0	0	579	5035_1PRL_Young_Final	5035	1	137	1	-25	0	0	447	5035_1PRL_Young_Final	5035	1	138	2	25	1	1	257	5035_1PRL_Young_Final	5035	1	139	2	25	0	1	263	5035_1PRL_Young_Final	5035	1	140	2	25	0	1	268	5035_1PRL_Young_Final	5035	1	141	2	-25	0	1	268	5035_1PRL_Young_Final	5035	1	142	2	-25	0	1	268	5035_1PRL_Young_Final	5035	1	143	2	25	0	1	528	5035_1PRL_Young_Final	5035	1	144	2	25	0	1	267	5035_1PRL_Young_Final	5035	1	145	2	-25	0	0	314	5035_1PRL_Young_Final	5035	1	146	2	-25	0	0	567	5035_1PRL_Young_Final	5035	1	147	2	-25	0	0	797	5035_1PRL_Young_Final	5035	1	148	1	25	1	1	338	5035_1PRL_Young_Final	5035	1	149	1	25	0	1	296	5035_1PRL_Young_Final	5035	1	150	1	25	0	1	567	5035_1PRL_Young_Final	5035	1	151	1	25	0	1	579	5035_1PRL_Young_Final	5035	1	152	1	-25	0	1	303	5035_1PRL_Young_Final	5035	1	153	1	25	0	0	286	5035_1PRL_Young_Final	5035	1	154	1	25	0	0	278	5035_1PRL_Young_Final	5035	1	155	1	-25	0	0	359	5035_1PRL_Young_Final	5035	1	156	1	-25	0	0	571	5035_1PRL_Young_Final	5035	1	157	2	25	1	1	517	5035_1PRL_Young_Final	5035	1	158	2	25	0	1	354	5035_1PRL_Young_Final	5035	1	159	2	25	0	1	342	5035_1PRL_Young_Final	5035	1	160	2	25	0	1	289	5035_1PRL_Young_Final	5035	1	161	2	25	0	1	273	5035_1PRL_Young_Final	5035	1	162	2	25	0	1	286	5035_1PRL_Young_Final	5035	1	163	2	25	0	1	579	5035_1PRL_Young_Final	5035	1	164	2	-25	0	1	571	5035_1PRL_Young_Final	5035	1	165	2	-25	0	0	349	5035_1PRL_Young_Final	5035	1	166	1	25	1	1	289	5035_1PRL_Young_Final	5035	1	167	1	25	0	1	510	5035_1PRL_Young_Final	5035	1	168	1	-25	0	1	287	5035_1PRL_Young_Final	5035	1	169	1	25	0	1	289	5035_1PRL_Young_Final	5035	1	170	1	25	0	1	281	5035_1PRL_Young_Final	5035	1	171	1	25	0	1	258	5035_1PRL_Young_Final	5035	1	172	1	25	0	1	302	5035_1PRL_Young_Final	5035	1	173	1	25	0	1	590	5035_1PRL_Young_Final	5035	1	174	1	-25	0	0	298	5035_1PRL_Young_Final	5035	1	175	1	-25	0	0	261	5035_1PRL_Young_Final	5035	1	176	2	-25	1	1	387	5035_1PRL_Young_Final	5035	1	177	2	-25	0	1	362	5035_1PRL_Young_Final	5035	1	178	1	-25	1	0	258	5035_1PRL_Young_Final	5035	1	179	1	25	0	0	346	5035_1PRL_Young_Final	5035	1	180	1	-25	0	0	299	5035_1PRL_Young_Final	5035	1	181	1	-25	0	0	311	5035_1PRL_Young_Final	5035	1	182	2	25	1	1	274	5035_1PRL_Young_Final	5035	1	183	2	25	0	1	295	5035_1PRL_Young_Final	5035	1	184	2	25	0	1	325	5035_1PRL_Young_Final	5035	1	185	2	25	0	1	330	5035_1PRL_Young_Final	5035	1	186	2	25	0	1	278	5035_1PRL_Young_Final	5035	1	187	2	-25	0	0	602	5035_1PRL_Young_Final	5035	1	188	2	-25	0	0	594	5035_1PRL_Young_Final	5035	1	189	1	25	1	1	269	5035_1PRL_Young_Final	5035	1	190	1	-25	0	1	274	5035_1PRL_Young_Final	5035	1	191	1	25	0	1	271	5035_1PRL_Young_Final	5035	1	192	1	25	0	1	301	5035_1PRL_Young_Final	5035	1	193	1	25	0	1	322	5035_1PRL_Young_Final	5035	1	194	1	25	0	1	332	5035_1PRL_Young_Final	5035	1	195	1	25	0	1	337	5035_1PRL_Young_Final	5035	1	196	1	25	0	1	274	5035_1PRL_Young_Final	5035	1	197	1	-25	0	0	279	5035_1PRL_Young_Final	5035	1	198	1	-25	0	0	577	5035_1PRL_Young_Final	5035	1	199	2	25	1	1	350	5035_1PRL_Young_Final	5035	1	200	2	-25	0	1	262	5035_1PRL_Young_Final	5035	2	1	1	-25	1	0	838	5035_2PRL_Young_Final	5035	2	2	1	25	0	0	413	5035_2PRL_Young_Final	5035	2	3	1	-25	0	0	491	5035_2PRL_Young_Final	5035	2	4	1	25	0	0	276	5035_2PRL_Young_Final	5035	2	5	1	-25	0	0	381	5035_2PRL_Young_Final	5035	2	6	1	-25	0	0	279	5035_2PRL_Young_Final	5035	2	7	2	25	1	1	556	5035_2PRL_Young_Final	5035	2	8	2	25	0	1	297	5035_2PRL_Young_Final	5035	2	9	2	-25	0	1	344	5035_2PRL_Young_Final	5035	2	10	2	25	0	1	285	5035_2PRL_Young_Final	5035	2	11	2	25	0	1	306	5035_2PRL_Young_Final	5035	2	12	2	-25	0	0	567	5035_2PRL_Young_Final	5035	2	13	2	-25	0	0	597	5035_2PRL_Young_Final	5035	2	14	1	25	1	1	266	5035_2PRL_Young_Final	5035	2	15	1	25	0	1	482	5035_2PRL_Young_Final	5035	2	16	1	25	0	1	346	5035_2PRL_Young_Final	5035	2	17	1	-25	0	1	1135	5035_2PRL_Young_Final	5035	2	18	1	-25	0	1	294	5035_2PRL_Young_Final	5035	2	19	2	-25	1	0	283	5035_2PRL_Young_Final	5035	2	20	2	-25	0	0	356	5035_2PRL_Young_Final	5035	2	21	1	25	1	1	312	5035_2PRL_Young_Final	5035	2	22	1	25	0	1	322	5035_2PRL_Young_Final	5035	2	23	1	25	0	1	664	5035_2PRL_Young_Final	5035	2	24	1	25	0	1	586	5035_2PRL_Young_Final	5035	2	25	1	25	0	1	429	5035_2PRL_Young_Final	5035	2	26	1	25	0	0	479	5035_2PRL_Young_Final	5035	2	27	1	25	0	0	348	5035_2PRL_Young_Final	5035	2	28	1	-25	0	0	619	5035_2PRL_Young_Final	5035	2	29	1	-25	0	0	293	5035_2PRL_Young_Final	5035	2	30	2	25	1	1	272	5035_2PRL_Young_Final	5035	2	31	2	-25	0	1	306	5035_2PRL_Young_Final	5035	2	32	2	25	0	1	452	5035_2PRL_Young_Final	5035	2	33	2	25	0	1	262	5035_2PRL_Young_Final	5035	2	34	2	25	0	1	269	5035_2PRL_Young_Final	5035	2	35	2	25	0	1	272	5035_2PRL_Young_Final	5035	2	36	2	-25	0	0	294	5035_2PRL_Young_Final	5035	2	37	2	-25	0	0	416	5035_2PRL_Young_Final	5035	2	38	2	-25	0	0	368	5035_2PRL_Young_Final	5035	2	39	1	25	1	1	252	5035_2PRL_Young_Final	5035	2	40	1	25	0	1	241	5035_2PRL_Young_Final	5035	2	41	1	25	0	1	309	5035_2PRL_Young_Final	5035	2	42	1	-25	0	1	342	5035_2PRL_Young_Final	5035	2	43	1	25	0	1	318	5035_2PRL_Young_Final	5035	2	44	1	25	0	1	94	5035_2PRL_Young_Final	5035	2	45	1	-25	0	0	285	5035_2PRL_Young_Final	5035	2	46	1	25	0	0	258	5035_2PRL_Young_Final	5035	2	47	1	-25	0	0	363	5035_2PRL_Young_Final	5035	2	48	1	-25	0	0	316	5035_2PRL_Young_Final	5035	2	49	2	-25	1	1	310	5035_2PRL_Young_Final	5035	2	50	2	25	0	1	373	5035_2PRL_Young_Final	5035	2	51	2	25	0	1	571	5035_2PRL_Young_Final	5035	2	52	2	25	0	1	294	5035_2PRL_Young_Final	5035	2	53	2	25	0	1	314	5035_2PRL_Young_Final	5035	2	54	2	-25	0	0	628	5035_2PRL_Young_Final	5035	2	55	2	-25	0	0	545	5035_2PRL_Young_Final	5035	2	56	1	25	1	1	304	5035_2PRL_Young_Final	5035	2	57	1	-25	0	1	323	5035_2PRL_Young_Final	5035	2	58	1	-25	0	1	295	5035_2PRL_Young_Final	5035	2	59	2	-25	1	0	366	5035_2PRL_Young_Final	5035	2	60	2	-25	0	0	276	5035_2PRL_Young_Final	5035	2	61	1	25	1	1	282	5035_2PRL_Young_Final	5035	2	62	1	25	0	1	399	5035_2PRL_Young_Final	5035	2	63	1	25	0	1	334	5035_2PRL_Young_Final	5035	2	64	1	25	0	1	310	5035_2PRL_Young_Final	5035	2	65	1	25	0	1	416	5035_2PRL_Young_Final	5035	2	66	1	25	0	1	651	5035_2PRL_Young_Final	5035	2	67	1	-25	0	0	739	5035_2PRL_Young_Final	5035	2	68	1	25	0	0	368	5035_2PRL_Young_Final	5035	2	69	1	-25	0	0	274	5035_2PRL_Young_Final	5035	2	70	1	25	0	0	583	5035_2PRL_Young_Final	5035	2	71	1	-25	0	0	618	5035_2PRL_Young_Final	5035	2	72	1	-25	0	0	350	5035_2PRL_Young_Final	5035	2	73	2	-25	1	1	256	5035_2PRL_Young_Final	5035	2	74	2	25	0	1	289	5035_2PRL_Young_Final	5035	2	75	2	25	0	1	356	5035_2PRL_Young_Final	5035	2	76	2	25	0	1	399	5035_2PRL_Young_Final	5035	2	77	2	25	0	1	314	5035_2PRL_Young_Final	5035	2	78	2	25	0	1	325	5035_2PRL_Young_Final	5035	2	79	2	25	0	1	272	5035_2PRL_Young_Final	5035	2	80	2	25	0	1	536	5035_2PRL_Young_Final	5035	2	81	2	-25	0	0	372	5035_2PRL_Young_Final	5035	2	82	2	-25	0	0	308	5035_2PRL_Young_Final	5035	2	83	1	-25	1	1	460	5035_2PRL_Young_Final	5035	2	84	1	25	0	1	408	5035_2PRL_Young_Final	5035	2	85	1	25	0	1	307	5035_2PRL_Young_Final	5035	2	86	1	-25	0	1	635	5035_2PRL_Young_Final	5035	2	87	1	25	0	1	643	5035_2PRL_Young_Final	5035	2	88	1	25	0	1	331	5035_2PRL_Young_Final	5035	2	89	1	25	0	1	599	5035_2PRL_Young_Final	5035	2	90	1	25	0	1	288	5035_2PRL_Young_Final	5035	2	91	1	-25	0	0	271	5035_2PRL_Young_Final	5035	2	92	1	-25	0	0	324	5035_2PRL_Young_Final	5035	2	93	2	25	1	1	356	5035_2PRL_Young_Final	5035	2	94	2	-25	0	1	812	5035_2PRL_Young_Final	5035	2	95	2	-25	0	1	767	5035_2PRL_Young_Final	5035	2	96	1	25	1	0	309	5035_2PRL_Young_Final	5035	2	97	1	25	0	0	278	5035_2PRL_Young_Final	5035	2	98	1	-25	0	0	367	5035_2PRL_Young_Final	5035	2	99	1	-25	0	0	279	5035_2PRL_Young_Final	5035	2	100	1	-25	0	0	489	5035_2PRL_Young_Final	5035	2	101	2	25	1	1	336	5035_2PRL_Young_Final	5035	2	102	2	25	0	1	285	5035_2PRL_Young_Final	5035	2	103	2	25	0	1	299	5035_2PRL_Young_Final	5035	2	104	2	25	0	1	455	5035_2PRL_Young_Final	5035	2	105	2	25	0	1	381	5035_2PRL_Young_Final	5035	2	106	2	25	0	1	327	5035_2PRL_Young_Final	5035	2	107	2	-25	0	1	644	5035_2PRL_Young_Final	5035	2	108	2	-25	0	0	608	5035_2PRL_Young_Final	5035	2	109	2	-25	0	0	280	5035_2PRL_Young_Final	5035	2	110	1	25	1	1	315	5035_2PRL_Young_Final	5035	2	111	1	25	0	1	677	5035_2PRL_Young_Final	5035	2	112	1	25	0	1	260	5035_2PRL_Young_Final	5035	2	113	1	25	0	1	652	5035_2PRL_Young_Final	5035	2	114	1	25	0	1	565	5035_2PRL_Young_Final	5035	2	115	1	-25	0	0	283	5035_2PRL_Young_Final	5035	2	116	1	25	0	0	321	5035_2PRL_Young_Final	5035	2	117	1	-25	0	0	617	5035_2PRL_Young_Final	5035	2	118	1	-25	0	0	477	5035_2PRL_Young_Final	5035	2	119	2	25	1	1	336	5035_2PRL_Young_Final	5035	2	120	2	25	0	1	379	5035_2PRL_Young_Final	5035	2	121	2	-25	0	1	341	5035_2PRL_Young_Final	5035	2	122	2	25	0	1	494	5035_2PRL_Young_Final	5035	2	123	2	25	0	1	412	5035_2PRL_Young_Final	5035	2	124	2	-25	0	0	344	5035_2PRL_Young_Final	5035	2	125	2	-25	0	0	654	5035_2PRL_Young_Final	5035	2	126	1	-25	1	1	348	5035_2PRL_Young_Final	5035	2	127	1	25	0	1	314	5035_2PRL_Young_Final	5035	2	128	1	25	0	1	622	5035_2PRL_Young_Final	5035	2	129	1	25	0	1	298	5035_2PRL_Young_Final	5035	2	130	1	25	0	1	406	5035_2PRL_Young_Final	5035	2	131	1	25	0	1	413	5035_2PRL_Young_Final	5035	2	132	1	-25	0	1	479	5035_2PRL_Young_Final	5035	2	133	1	-25	0	0	390	5035_2PRL_Young_Final	5035	2	134	2	-25	1	1	1168	5035_2PRL_Young_Final	5035	2	135	2	25	0	1	1025	5035_2PRL_Young_Final	5035	2	136	2	25	0	1	383	5035_2PRL_Young_Final	5035	2	137	2	25	0	1	415	5035_2PRL_Young_Final	5035	2	138	2	25	0	1	334	5035_2PRL_Young_Final	5035	2	139	2	25	0	1	369	5035_2PRL_Young_Final	5035	2	140	2	25	0	1	428	5035_2PRL_Young_Final	5035	2	141	2	-25	0	1	345	5035_2PRL_Young_Final	5035	2	142	2	-25	0	0	326	5035_2PRL_Young_Final	5035	2	143	1	25	1	1	548	5035_2PRL_Young_Final	5035	2	144	1	25	0	1	690	5035_2PRL_Young_Final	5035	2	145	1	25	0	1	635	5035_2PRL_Young_Final	5035	2	146	1	25	0	1	1661	5035_2PRL_Young_Final	5035	2	147	1	25	0	1	358	5035_2PRL_Young_Final	5035	2	148	1	25	0	1	443	5035_2PRL_Young_Final	5035	2	149	1	25	0	1	353	5035_2PRL_Young_Final	5035	2	150	1	-25	0	0	310	5035_2PRL_Young_Final	5035	2	151	1	25	0	0	664	5035_2PRL_Young_Final	5035	2	152	1	-25	0	0	320	5035_2PRL_Young_Final	5035	2	153	1	25	0	0	318	5035_2PRL_Young_Final	5035	2	154	1	-25	0	0	630	5035_2PRL_Young_Final	5035	2	155	1	-25	0	0	373	5035_2PRL_Young_Final	5035	2	156	2	-25	1	1	385	5035_2PRL_Young_Final	5035	2	157	2	25	0	1	477	5035_2PRL_Young_Final	5035	2	158	2	25	0	1	360	5035_2PRL_Young_Final	5035	2	159	2	-25	0	1	524	5035_2PRL_Young_Final	5035	2	160	2	25	0	1	495	5035_2PRL_Young_Final	5035	2	161	2	-25	0	0	447	5035_2PRL_Young_Final	5035	2	162	2	-25	0	0	596	5035_2PRL_Young_Final	5035	2	163	1	25	1	1	598	5035_2PRL_Young_Final	5035	2	164	1	25	0	1	246	5035_2PRL_Young_Final	5035	2	165	1	25	0	1	283	5035_2PRL_Young_Final	5035	2	166	1	25	0	1	604	5035_2PRL_Young_Final	5035	2	167	1	-25	0	1	261	5035_2PRL_Young_Final	5035	2	168	1	-25	0	1	343	5035_2PRL_Young_Final	5035	2	169	2	-25	1	0	182	5035_2PRL_Young_Final	5035	2	170	2	-25	0	0	346	5035_2PRL_Young_Final	5035	2	171	1	25	1	1	432	5035_2PRL_Young_Final	5035	2	172	1	25	0	1	264	5035_2PRL_Young_Final	5035	2	173	1	25	0	1	347	5035_2PRL_Young_Final	5035	2	174	1	25	0	1	724	5035_2PRL_Young_Final	5035	2	175	1	25	0	1	607	5035_2PRL_Young_Final	5035	2	176	1	25	0	1	298	5035_2PRL_Young_Final	5035	2	177	1	25	0	0	292	5035_2PRL_Young_Final	5035	2	178	1	25	0	0	377	5035_2PRL_Young_Final	5035	2	179	1	-25	0	0	368	5035_2PRL_Young_Final	5035	2	180	1	-25	0	0	579	5035_2PRL_Young_Final	5035	2	181	2	-25	1	1	580	5035_2PRL_Young_Final	5035	2	182	2	25	0	1	371	5035_2PRL_Young_Final	5035	2	183	2	25	0	1	840	5035_2PRL_Young_Final	5035	2	184	2	25	0	1	642	5035_2PRL_Young_Final	5035	2	185	2	25	0	1	14	5035_2PRL_Young_Final	5035	2	186	2	25	0	1	262	5035_2PRL_Young_Final	5035	2	187	2	25	0	1	532	5035_2PRL_Young_Final	5035	2	188	2	25	0	1	379	5035_2PRL_Young_Final	5035	2	189	2	-25	0	0	327	5035_2PRL_Young_Final	5035	2	190	2	-25	0	0	616	5035_2PRL_Young_Final	5035	2	191	1	-25	1	1	319	5035_2PRL_Young_Final	5035	2	192	1	25	0	1	292	5035_2PRL_Young_Final	5035	2	193	1	25	0	1	620	5035_2PRL_Young_Final	5035	2	194	1	-25	0	1	318	5035_2PRL_Young_Final	5035	2	195	1	25	0	1	349	5035_2PRL_Young_Final	5035	2	196	1	-25	0	0	320	5035_2PRL_Young_Final	5035	2	197	1	-25	0	0	289	5035_2PRL_Young_Final	5035	2	198	2	25	1	1	641	5035_2PRL_Young_Final	5035	2	199	2	25	0	1	600	5035_2PRL_Young_Final	5035	2	200	2	25	0	1	597	5035_2PRL_Young_Final	5035	3	1	1	25	1	0	553	5035_3PRL_Young_Final	5035	3	2	1	-25	0	0	296	5035_3PRL_Young_Final	5035	3	3	1	-25	0	0	572	5035_3PRL_Young_Final	5035	3	4	2	25	1	1	278	5035_3PRL_Young_Final	5035	3	5	2	-25	0	1	527	5035_3PRL_Young_Final	5035	3	6	2	-25	0	1	313	5035_3PRL_Young_Final	5035	3	7	1	-25	1	0	293	5035_3PRL_Young_Final	5035	3	8	1	-25	0	0	267	5035_3PRL_Young_Final	5035	3	9	2	25	1	1	345	5035_3PRL_Young_Final	5035	3	10	2	25	0	1	314	5035_3PRL_Young_Final	5035	3	11	2	25	0	1	611	5035_3PRL_Young_Final	5035	3	12	2	25	0	1	280	5035_3PRL_Young_Final	5035	3	13	2	25	0	1	250	5035_3PRL_Young_Final	5035	3	14	2	25	0	1	266	5035_3PRL_Young_Final	5035	3	15	2	-25	0	1	267	5035_3PRL_Young_Final	5035	3	16	2	25	0	1	333	5035_3PRL_Young_Final	5035	3	17	2	-25	0	0	297	5035_3PRL_Young_Final	5035	3	18	2	-25	0	0	701	5035_3PRL_Young_Final	5035	3	19	1	25	1	1	311	5035_3PRL_Young_Final	5035	3	20	1	25	0	1	285	5035_3PRL_Young_Final	5035	3	21	1	25	0	1	470	5035_3PRL_Young_Final	5035	3	22	1	25	0	1	1365	5035_3PRL_Young_Final	5035	3	23	1	25	0	1	261	5035_3PRL_Young_Final	5035	3	24	1	25	0	1	266	5035_3PRL_Young_Final	5035	3	25	1	-25	0	1	298	5035_3PRL_Young_Final	5035	3	26	1	-25	0	0	412	5035_3PRL_Young_Final	5035	3	27	2	25	1	1	283	5035_3PRL_Young_Final	5035	3	28	2	25	0	1	499	5035_3PRL_Young_Final	5035	3	29	2	-25	0	1	51	5035_3PRL_Young_Final	5035	3	30	2	25	0	1	425	5035_3PRL_Young_Final	5035	3	31	2	25	0	1	597	5035_3PRL_Young_Final	5035	3	32	2	25	0	1	354	5035_3PRL_Young_Final	5035	3	33	2	25	0	1	318	5035_3PRL_Young_Final	5035	3	34	2	25	0	1	270	5035_3PRL_Young_Final	5035	3	35	2	25	0	0	322	5035_3PRL_Young_Final	5035	3	36	2	-25	0	0	319	5035_3PRL_Young_Final	5035	3	37	2	25	0	0	332	5035_3PRL_Young_Final	5035	3	38	2	-25	0	0	340	5035_3PRL_Young_Final	5035	3	39	2	-25	0	0	306	5035_3PRL_Young_Final	5035	3	40	1	-25	1	1	357	5035_3PRL_Young_Final	5035	3	41	1	-25	0	1	311	5035_3PRL_Young_Final	5035	3	42	2	-25	1	0	289	5035_3PRL_Young_Final	5035	3	43	2	-25	0	0	348	5035_3PRL_Young_Final	5035	3	44	1	25	1	1	397	5035_3PRL_Young_Final	5035	3	45	1	25	0	1	664	5035_3PRL_Young_Final	5035	3	46	1	25	0	1	965	5035_3PRL_Young_Final	5035	3	47	1	25	0	1	301	5035_3PRL_Young_Final	5035	3	48	1	25	0	1	277	5035_3PRL_Young_Final	5035	3	49	1	25	0	1	430	5035_3PRL_Young_Final	5035	3	50	1	-25	0	1	399	5035_3PRL_Young_Final	5035	3	51	1	25	0	1	398	5035_3PRL_Young_Final	5035	3	52	1	-25	0	0	718	5035_3PRL_Young_Final	5035	3	53	1	-25	0	0	388	5035_3PRL_Young_Final	5035	3	54	1	25	0	0	395	5035_3PRL_Young_Final	5035	3	55	1	25	0	0	506	5035_3PRL_Young_Final	5035	3	56	1	-25	0	0	343	5035_3PRL_Young_Final	5035	3	57	1	-25	0	0	923	5035_3PRL_Young_Final	5035	3	58	2	25	1	1	522	5035_3PRL_Young_Final	5035	3	59	2	25	0	1	294	5035_3PRL_Young_Final	5035	3	60	2	25	0	1	322	5035_3PRL_Young_Final	5035	3	61	2	25	0	1	607	5035_3PRL_Young_Final	5035	3	62	2	25	0	1	284	5035_3PRL_Young_Final	5035	3	63	2	25	0	1	461	5035_3PRL_Young_Final	5035	3	64	2	-25	0	1	318	5035_3PRL_Young_Final	5035	3	65	2	25	0	1	531	5035_3PRL_Young_Final	5035	3	66	2	-25	0	0	274	5035_3PRL_Young_Final	5035	3	67	2	-25	0	0	341	5035_3PRL_Young_Final	5035	3	68	1	25	1	1	390	5035_3PRL_Young_Final	5035	3	69	1	-25	0	1	356	5035_3PRL_Young_Final	5035	3	70	1	25	0	1	521	5035_3PRL_Young_Final	5035	3	71	1	25	0	1	302	5035_3PRL_Young_Final	5035	3	72	1	25	0	1	308	5035_3PRL_Young_Final	5035	3	73	1	25	0	1	338	5035_3PRL_Young_Final	5035	3	74	1	25	0	1	268	5035_3PRL_Young_Final	5035	3	75	1	-25	0	1	128	5035_3PRL_Young_Final	5035	3	76	1	-25	0	0	445	5035_3PRL_Young_Final	5035	3	77	2	-25	1	1	277	5035_3PRL_Young_Final	5035	3	78	2	25	0	1	584	5035_3PRL_Young_Final	5035	3	79	2	25	0	1	487	5035_3PRL_Young_Final	5035	3	80	2	25	0	1	368	5035_3PRL_Young_Final	5035	3	81	2	25	0	1	584	5035_3PRL_Young_Final	5035	3	82	2	25	0	1	300	5035_3PRL_Young_Final	5035	3	83	2	25	0	1	553	5035_3PRL_Young_Final	5035	3	84	2	-25	0	1	296	5035_3PRL_Young_Final	5035	3	85	2	-25	0	0	320	5035_3PRL_Young_Final	5035	3	86	2	25	0	0	299	5035_3PRL_Young_Final	5035	3	87	2	-25	0	0	661	5035_3PRL_Young_Final	5035	3	88	2	-25	0	0	304	5035_3PRL_Young_Final	5035	3	89	1	25	1	1	312	5035_3PRL_Young_Final	5035	3	90	1	25	0	1	631	5035_3PRL_Young_Final	5035	3	91	1	25	0	1	658	5035_3PRL_Young_Final	5035	3	92	1	25	0	1	248	5035_3PRL_Young_Final	5035	3	93	1	25	0	1	301	5035_3PRL_Young_Final	5035	3	94	1	25	0	1	551	5035_3PRL_Young_Final	5035	3	95	1	-25	0	0	597	5035_3PRL_Young_Final	5035	3	96	1	-25	0	0	605	5035_3PRL_Young_Final	5035	3	97	2	25	1	1	294	5035_3PRL_Young_Final	5035	3	98	2	-25	0	1	461	5035_3PRL_Young_Final	5035	3	99	2	25	0	1	313	5035_3PRL_Young_Final	5035	3	100	2	25	0	1	370	5035_3PRL_Young_Final	5035	3	101	2	-25	0	1	144	5035_3PRL_Young_Final	5035	3	102	2	-25	0	0	343	5035_3PRL_Young_Final	5035	3	103	1	25	1	1	334	5035_3PRL_Young_Final	5035	3	104	1	25	0	1	333	5035_3PRL_Young_Final	5035	3	105	1	25	0	1	645	5035_3PRL_Young_Final	5035	3	106	1	25	0	1	308	5035_3PRL_Young_Final	5035	3	107	1	25	0	1	334	5035_3PRL_Young_Final	5035	3	108	1	-25	0	0	305	5035_3PRL_Young_Final	5035	3	109	1	-25	0	0	313	5035_3PRL_Young_Final	5035	3	110	2	-25	1	1	614	5035_3PRL_Young_Final	5035	3	111	2	-25	0	1	585	5035_3PRL_Young_Final	5035	3	112	2	25	0	1	273	5035_3PRL_Young_Final	5035	3	113	2	25	0	1	626	5035_3PRL_Young_Final	5035	3	114	2	25	0	1	790	5035_3PRL_Young_Final	5035	3	115	2	25	0	1	402	5035_3PRL_Young_Final	5035	3	116	2	25	0	0	591	5035_3PRL_Young_Final	5035	3	117	2	-25	0	0	289	5035_3PRL_Young_Final	5035	3	118	2	25	0	0	404	5035_3PRL_Young_Final	5035	3	119	2	-25	0	0	343	5035_3PRL_Young_Final	5035	3	120	2	-25	0	0	635	5035_3PRL_Young_Final	5035	3	121	1	25	1	1	298	5035_3PRL_Young_Final	5035	3	122	1	25	0	1	804	5035_3PRL_Young_Final	5035	3	123	1	-25	0	1	304	5035_3PRL_Young_Final	5035	3	124	1	25	0	1	336	5035_3PRL_Young_Final	5035	3	125	1	25	0	1	683	5035_3PRL_Young_Final	5035	3	126	1	-25	0	0	290	5035_3PRL_Young_Final	5035	3	127	1	-25	0	0	403	5035_3PRL_Young_Final	5035	3	128	2	25	1	1	291	5035_3PRL_Young_Final	5035	3	129	2	25	0	1	311	5035_3PRL_Young_Final	5035	3	130	2	25	0	1	327	5035_3PRL_Young_Final	5035	3	131	2	25	0	1	303	5035_3PRL_Young_Final	5035	3	132	2	25	0	1	267	5035_3PRL_Young_Final	5035	3	133	2	-25	0	1	360	5035_3PRL_Young_Final	5035	3	134	2	25	0	1	351	5035_3PRL_Young_Final	5035	3	135	2	-25	0	0	358	5035_3PRL_Young_Final	5035	3	136	2	-25	0	0	354	5035_3PRL_Young_Final	5035	3	137	1	25	1	1	615	5035_3PRL_Young_Final	5035	3	138	1	-25	0	1	329	5035_3PRL_Young_Final	5035	3	139	1	25	0	1	314	5035_3PRL_Young_Final	5035	3	140	1	25	0	1	351	5035_3PRL_Young_Final	5035	3	141	1	25	0	1	356	5035_3PRL_Young_Final	5035	3	142	1	25	0	0	304	5035_3PRL_Young_Final	5035	3	143	1	25	0	0	278	5035_3PRL_Young_Final	5035	3	144	1	-25	0	0	346	5035_3PRL_Young_Final	5035	3	145	1	-25	0	0	378	5035_3PRL_Young_Final	5035	3	146	2	25	1	1	253	5035_3PRL_Young_Final	5035	3	147	2	25	0	1	336	5035_3PRL_Young_Final	5035	3	148	2	-25	0	1	796	5035_3PRL_Young_Final	5035	3	149	2	-25	0	1	621	5035_3PRL_Young_Final	5035	3	150	1	-25	1	0	329	5035_3PRL_Young_Final	5035	3	151	2	25	1	1	249	5035_3PRL_Young_Final	5035	3	152	2	25	0	1	302	5035_3PRL_Young_Final	5035	3	153	2	25	0	1	390	5035_3PRL_Young_Final	5035	3	154	2	25	0	1	341	5035_3PRL_Young_Final	5035	3	155	2	25	0	1	260	5035_3PRL_Young_Final	5035	3	156	2	25	0	1	278	5035_3PRL_Young_Final	5035	3	157	2	-25	0	1	432	5035_3PRL_Young_Final	5035	3	158	2	-25	0	0	276	5035_3PRL_Young_Final	5035	3	159	1	25	1	1	558	5035_3PRL_Young_Final	5035	3	160	1	25	0	1	313	5035_3PRL_Young_Final	5035	3	161	1	25	0	1	360	5035_3PRL_Young_Final	5035	3	162	1	25	0	1	557	5035_3PRL_Young_Final	5035	3	163	1	25	0	1	612	5035_3PRL_Young_Final	5035	3	164	1	25	0	1	388	5035_3PRL_Young_Final	5035	3	165	1	25	0	1	613	5035_3PRL_Young_Final	5035	3	166	1	-25	0	1	260	5035_3PRL_Young_Final	5035	3	167	1	-25	0	0	856	5035_3PRL_Young_Final	5035	3	168	2	25	1	1	586	5035_3PRL_Young_Final	5035	3	169	2	25	0	1	705	5035_3PRL_Young_Final	5035	3	170	2	-25	0	1	446	5035_3PRL_Young_Final	5035	3	171	2	25	0	1	266	5035_3PRL_Young_Final	5035	3	172	2	25	0	1	365	5035_3PRL_Young_Final	5035	3	173	2	25	0	1	285	5035_3PRL_Young_Final	5035	3	174	2	-25	0	0	268	5035_3PRL_Young_Final	5035	3	175	2	25	0	0	255	5035_3PRL_Young_Final	5035	3	176	2	-25	0	0	533	5035_3PRL_Young_Final	5035	3	177	1	25	1	1	320	5035_3PRL_Young_Final	5035	3	178	1	25	0	1	285	5035_3PRL_Young_Final	5035	3	179	1	-25	0	1	271	5035_3PRL_Young_Final	5035	3	180	1	-25	0	1	553	5035_3PRL_Young_Final	5035	3	181	2	-25	1	0	275	5035_3PRL_Young_Final	5035	3	182	1	25	1	1	293	5035_3PRL_Young_Final	5035	3	183	1	25	0	1	554	5035_3PRL_Young_Final	5035	3	184	1	25	0	1	300	5035_3PRL_Young_Final	5035	3	185	1	25	0	1	274	5035_3PRL_Young_Final	5035	3	186	1	25	0	1	289	5035_3PRL_Young_Final	5035	3	187	1	25	0	1	320	5035_3PRL_Young_Final	5035	3	188	1	-25	0	1	303	5035_3PRL_Young_Final	5035	3	189	1	-25	0	0	390	5035_3PRL_Young_Final	5035	3	190	2	25	1	1	272	5035_3PRL_Young_Final	5035	3	191	2	25	0	1	673	5035_3PRL_Young_Final	5035	3	192	2	25	0	1	263	5035_3PRL_Young_Final	5035	3	193	2	25	0	1	274	5035_3PRL_Young_Final	5035	3	194	2	25	0	1	578	5035_3PRL_Young_Final	5035	3	195	2	25	0	1	483	5035_3PRL_Young_Final	5035	3	196	2	-25	0	0	324	5035_3PRL_Young_Final	5035	3	197	2	-25	0	0	324	5035_3PRL_Young_Final	5035	3	198	1	25	1	1	299	5035_3PRL_Young_Final	5035	3	199	1	-25	0	1	406	5035_3PRL_Young_Final	5035	3	200	1	25	0	1	272	5035_3