subjID	trial_number	RT	prob	reward_var	reward_fix	outcome	types	ambig	choice
1	1	2579	0.5	342	50	0	ambiguous	0.75	0
1	2	1736	0.375	91	50	0	low	0	1
1	3	1006	0.5	342	50	342	ambiguous	0.5	1
1	4	1374	0.375	183	50	0	low	0	1
1	5	1119	0.25	648	50	648	low	0	1
1	6	1147	0.375	648	50	0	low	0	1
1	7	1034	0.375	99	50	99	low	0	1
1	8	953	0.375	98	50	98	low	0	1
1	9	1114	0.5	54	50	50	ambiguous	0.5	0
1	10	3243	0.5	99	50	50	ambiguous	0.5	0
1	11	2955	0.5	340	50	50	ambiguous	0.75	0
1	12	1105	0.5	91	50	50	ambiguous	0.5	0
1	13	920	0.375	342	50	0	low	0	1
1	14	242	0.125	98	50	0	low	0	0
1	15	1665	0.25	181	50	0	low	0	0
1	16	801	0.5	183	50	183	ambiguous	0.25	1
1	17	793	0.5	183	50	0	ambiguous	0.75	0
1	18	816	0.5	46	50	0	ambiguous	0.5	0
1	19	1009	0.375	340	50	0	low	0	1
1	20	191	0.25	46	50	50	low	0	0
1	21	64	0.25	342	50	0	low	0	0
1	22	807	0.125	648	50	0	low	0	1
1	23	1047	0.25	98	50	50	low	0	0
1	24	401	0.125	91	50	0	low	0	0
1	25	1009	0.125	342	50	50	low	0	0
1	26	707	0.5	99	50	0	ambiguous	0.25	1
1	27	516	0.5	181	50	181	ambiguous	0.25	1
1	28	66	0.375	48	50	0	low	0	0
1	29	2206	0.5	340	50	0	ambiguous	0.5	0
1	30	826	0.5	343	50	343	ambiguous	0.5	1
1	31	391	0.125	343	50	50	low	0	0
1	32	293	0.25	54	50	0	low	0	0
1	33	310	0.5	648	50	648	ambiguous	0.5	1
1	34	923	0.375	648	50	0	low	0	1
1	35	744	0.5	48	50	0	ambiguous	0.25	0
1	36	278	0.5	48	50	0	ambiguous	0.75	0
1	37	450	0.375	46	50	0	low	0	0
1	38	267	0.5	654	50	0	ambiguous	0.5	1
1	39	169	0.5	54	50	50	ambiguous	0.25	0
1	40	179	0.5	46	50	0	ambiguous	0.75	0
1	41	142	0.5	648	50	0	ambiguous	0.25	1
1	42	863	0.5	648	50	0	ambiguous	0.75	0
1	43	75	0.25	183	50	0	low	0	0
1	44	183	0.25	91	50	0	low	0	0
1	45	84	0.125	181	50	50	low	0	0
1	46	2191	0.375	343	50	0	low	0	1
1	47	269	0.125	648	50	0	low	0	0
1	48	396	0.125	99	50	50	low	0	0
1	49	137	0.5	654	50	0	ambiguous	0.25	1
1	50	124	0.5	342	50	0	ambiguous	0.25	1
1	51	1926	0.5	91	50	50	ambiguous	0.75	0
1	52	96	0.125	183	50	50	low	0	0
1	53	59	0.5	98	50	0	ambiguous	0.75	0
1	54	342	0.125	340	50	0	low	0	0
1	55	157	0.375	54	50	50	low	0	0
1	56	122	0.5	183	50	0	ambiguous	0.75	0
1	57	29	0.125	48	50	50	low	0	0
1	58	985	0.375	183	50	0	low	0	1
1	59	142	0.5	183	50	183	ambiguous	0.25	1
1	60	246	0.125	54	50	50	low	0	0
1	61	254	0.5	99	50	50	ambiguous	0.75	0
1	62	107	0.5	648	50	648	ambiguous	0.25	1
1	63	86	0.5	343	50	0	ambiguous	0.25	1
1	64	50	0.25	48	50	50	low	0	0
1	65	1507	0.125	183	50	50	low	0	0
1	66	247	0.25	99	50	50	low	0	0
1	67	21	0.5	98	50	98	ambiguous	0.25	1
1	68	276	0.5	183	50	0	ambiguous	0.5	0
1	69	1697	0.25	343	50	0	low	0	0
1	70	208	0.5	648	50	648	ambiguous	0.5	1
1	71	874	0.5	183	50	50	ambiguous	0.5	0
1	72	4451	0.25	654	50	50	low	0	0
1	73	255	0.5	181	50	0	ambiguous	0.75	0
1	74	220	0.5	654	50	50	ambiguous	0.75	0
1	75	2058	0.5	46	50	0	ambiguous	0.25	0
1	76	198	0.125	46	50	50	low	0	0
1	77	293	0.5	91	50	91	ambiguous	0.25	1
1	78	133	0.5	54	50	50	ambiguous	0.75	0
1	79	281	0.375	181	50	181	low	0	1
1	80	63	0.5	48	50	0	ambiguous	0.5	0
1	81	1945	0.5	181	50	181	ambiguous	0.5	1
1	82	238	0.25	183	50	50	low	0	0
1	83	210	0.25	340	50	0	low	0	0
1	84	3110	0.5	648	50	648	ambiguous	0.75	1
1	85	660	0.5	343	50	0	ambiguous	0.75	0
1	86	13	0.5	98	50	0	ambiguous	0.5	0
1	87	744	0.375	654	50	0	low	0	1
1	88	3835	0.125	654	50	0	low	0	0
1	89	72	0.25	648	50	0	low	0	1
1	90	90	0.5	340	50	340	ambiguous	0.25	1
2	1	857	0.375	647	50	0	low	0	1
2	2	437	0.5	99	50	0	ambiguous	0.75	0
2	3	289	0.5	96	50	0	ambiguous	0.25	1
2	4	514	0.5	184	50	184	ambiguous	0.75	1
2	5	233	0.5	336	50	336	ambiguous	0.25	1
2	6	321	0.375	180	50	0	low	0	1
2	7	266	0.5	47	50	50	ambiguous	0.75	0
2	8	288	0.375	181	50	0	low	0	0
2	9	480	0.25	647	50	50	low	0	0
2	10	330	0.5	180	50	180	ambiguous	0.25	1
2	11	421	0.25	180	50	0	low	0	1
2	12	290	0.5	47	50	0	ambiguous	0.25	0
2	13	540	0.125	91	50	0	low	0	0
2	14	71	0.5	91	50	0	ambiguous	0.5	0
2	15	184	0.5	647	50	0	ambiguous	0.25	0
2	16	236	0.5	649	50	649	ambiguous	0.5	1
2	17	364	0.375	336	50	0	low	0	1
2	18	241	0.375	91	50	0	low	0	1
2	19	62	0.375	96	50	50	low	0	0
2	20	456	0.25	649	50	50	low	0	0
2	21	653	0.5	91	50	0	ambiguous	0.75	1
2	22	282	0.25	184	50	50	low	0	0
2	23	42	0.125	49	50	0	low	0	0
2	24	52	0.125	181	50	0	low	0	0
2	25	443	0.125	180	50	0	low	0	0
2	26	353	0.25	181	50	181	low	0	1
2	27	265	0.375	48	50	0	low	0	0
2	28	245	0.5	647	50	0	ambiguous	0.5	1
2	29	286	0.125	647	50	0	low	0	0
2	30	198	0.25	336	50	0	low	0	0
2	31	76	0.5	49	50	0	ambiguous	0.5	0
2	32	261	0.5	340	50	0	ambiguous	0.25	1
2	33	166	0.5	99	50	50	ambiguous	0.5	0
2	34	333	0.125	336	50	0	low	0	0
2	35	99	0.125	340	50	0	low	0	0
2	36	255	0.5	647	50	0	ambiguous	0.25	0
2	37	257	0.5	647	50	0	ambiguous	0.75	1
2	38	199	0.375	184	50	0	low	0	1
2	39	118	0.375	49	50	0	low	0	0
2	40	233	0.5	180	50	50	ambiguous	0.5	0
2	41	49	0.5	49	50	49	ambiguous	0.25	1
2	42	102	0.25	48	50	0	low	0	0
2	43	512	0.5	181	50	181	ambiguous	0.75	1
2	44	20	0.125	336	50	50	low	0	0
2	45	198	0.5	48	50	50	ambiguous	0.5	0
2	46	201	0.25	340	50	50	low	0	0
2	47	17	0.5	96	50	96	ambiguous	0.5	1
2	48	74	0.25	47	50	50	low	0	0
2	49	211	0.25	99	50	50	low	0	0
2	50	109	0.5	49	50	0	ambiguous	0.75	0
2	51	410	0.125	649	50	50	low	0	0
2	52	304	0.5	649	50	50	ambiguous	0.25	0
2	53	220	0.25	91	50	0	low	0	0
2	54	21	0.5	336	50	50	ambiguous	0.75	0
2	55	271	0.5	48	50	0	ambiguous	0.75	0
2	56	1458	0.125	99	50	50	low	0	0
2	57	254	0.25	49	50	50	low	0	0
2	58	216	0.5	340	50	0	ambiguous	0.75	1
2	59	241	0.375	647	50	0	low	0	1
2	60	21	0.5	647	50	0	ambiguous	0.75	1
2	61	8	0.5	340	50	340	ambiguous	0.5	1
2	62	168	0.5	336	50	0	ambiguous	0.5	1
2	63	387	0.5	184	50	50	ambiguous	0.5	0
2	64	266	0.375	99	50	0	low	0	0
2	65	277	0.5	91	50	0	ambiguous	0.25	0
2	66	350	0.5	647	50	0	ambiguous	0.5	0
2	67	358	0.5	47	50	0	ambiguous	0.5	0
2	68	407	0.5	184	50	0	ambiguous	0.25	0
2	69	5	0.125	647	50	50	low	0	0
2	70	369	0.125	48	50	50	low	0	0
2	71	175	0.375	649	50	649	low	0	1
2	72	650	0.25	647	50	50	low	0	0
2	73	459	0.5	336	50	0	ambiguous	0.5	1
2	74	129	0.5	96	50	0	ambiguous	0.75	0
2	75	443	0.125	96	50	50	low	0	0
2	76	398	0.375	340	50	50	low	0	0
2	77	105	0.5	99	50	0	ambiguous	0.25	1
2	78	239	0.125	47	50	0	low	0	0
2	79	76	0.5	48	50	50	ambiguous	0.25	0
2	80	198	0.25	336	50	336	low	0	1
2	81	186	0.5	649	50	649	ambiguous	0.75	1
2	82	130	0.5	181	50	0	ambiguous	0.25	1
2	83	211	0.5	336	50	336	ambiguous	0.75	1
2	84	231	0.5	180	50	50	ambiguous	0.75	0
2	85	75	0.5	181	50	0	ambiguous	0.5	1
2	86	41	0.375	47	50	50	low	0	0
2	87	406	0.125	184	50	0	low	0	1
2	88	367	0.25	96	50	0	low	0	1
2	89	100	0.5	336	50	336	ambiguous	0.25	1
2	90	967	0.375	336	50	0	low	0	0
3	1	2755	0.5	341	50	0	ambiguous	0.25	1
3	2	1695	0.125	183	50	0	low	0	1
3	3	1291	0.5	92	50	0	ambiguous	0.75	0
3	4	940	0.25	341	50	0	low	0	1
3	5	1716	0.25	342	50	0	low	0	1
3	6	1165	0.375	653	50	0	low	0	1
3	7	1306	0.5	343	50	343	ambiguous	0.75	1
3	8	1815	0.5	182	50	0	ambiguous	0.25	1
3	9	1467	0.125	653	50	0	low	0	1
3	10	1420	0.5	343	50	0	ambiguous	0.25	1
3	11	1625	0.25	653	50	0	low	0	1
3	12	1157	0.5	646	50	646	ambiguous	0.5	1
3	13	1225	0.5	183	50	0	ambiguous	0.25	1
3	14	1438	0.25	183	50	183	low	0	1
3	15	1683	0.5	653	50	0	ambiguous	0.75	1
3	16	1838	0.5	50	50	0	ambiguous	0.5	0
3	17	1618	0.25	50	50	0	low	0	0
3	18	1708	0.5	183	50	183	ambiguous	0.75	1
3	19	970	0.5	94	50	0	ambiguous	0.75	1
3	20	1151	0.5	653	50	0	ambiguous	0.75	1
3	21	1928	0.5	646	50	0	ambiguous	0.25	1
3	22	1758	0.5	653	50	0	ambiguous	0.5	1
3	23	2629	0.125	653	50	0	low	0	1
3	24	1439	0.5	183	50	0	ambiguous	0.25	1
3	25	1328	0.5	50	50	0	ambiguous	0.75	0
3	26	1193	0.5	342	50	0	ambiguous	0.75	1
3	27	1290	0.5	94	50	94	ambiguous	0.5	1
3	28	1487	0.5	183	50	0	ambiguous	0.5	1
3	29	1154	0.5	94	50	50	ambiguous	0.25	0
3	30	1205	0.375	94	50	50	low	0	0
3	31	1449	0.25	182	50	0	low	0	1
3	32	1497	0.5	342	50	0	ambiguous	0.25	1
3	33	1430	0.25	183	50	0	low	0	1
3	34	1514	0.375	92	50	0	low	0	0
3	35	992	0.5	653	50	0	ambiguous	0.25	1
3	36	1920	0.5	343	50	0	ambiguous	0.5	1
3	37	1612	0.5	653	50	653	ambiguous	0.5	1
3	38	1224	0.5	341	50	0	ambiguous	0.5	1
3	39	549	0.375	342	50	342	low	0	1
3	40	617	0.5	94	50	0	ambiguous	0.5	0
3	41	1139	0.125	341	50	341	low	0	1
3	42	1991	0.375	50	50	50	low	0	1
3	43	1678	0.125	94	50	0	low	0	0
3	44	1776	0.375	94	50	50	low	0	0
3	45	1733	0.125	183	50	0	low	0	1
3	46	1216	0.25	343	50	0	low	0	1
3	47	1125	0.375	182	50	0	low	0	1
3	48	1618	0.125	342	50	0	low	0	1
3	49	1828	0.375	51	50	50	low	0	0
3	50	1781	0.25	646	50	0	low	0	1
3	51	553	0.375	183	50	0	low	0	1
3	52	899	0.5	183	50	183	ambiguous	0.75	1
3	53	388	0.125	47	50	50	low	0	0
3	54	615	0.5	47	50	0	ambiguous	0.75	0
3	55	594	0.375	343	50	0	low	0	1
3	56	346	0.25	47	50	0	low	0	0
3	57	1069	0.125	343	50	0	low	0	1
3	58	894	0.5	51	50	50	ambiguous	0.25	0
3	59	576	0.5	646	50	0	ambiguous	0.75	1
3	60	592	0.125	182	50	0	low	0	1
3	61	1508	0.5	92	50	0	ambiguous	0.5	0
3	62	383	0.375	646	50	646	low	0	1
3	63	428	0.5	51	50	50	ambiguous	0.5	0
3	64	432	0.125	51	50	50	low	0	0
3	65	454	0.375	47	50	0	low	0	0
3	66	926	0.5	92	50	0	ambiguous	0.25	0
3	67	346	0.375	341	50	341	low	0	1
3	68	355	0.5	51	50	0	ambiguous	0.75	0
3	69	879	0.25	94	50	50	low	0	0
3	70	827	0.125	92	50	0	low	0	0
3	71	437	0.5	182	50	182	ambiguous	0.5	1
3	72	432	0.5	47	50	0	ambiguous	0.25	0
3	73	411	0.5	341	50	0	ambiguous	0.75	0
3	74	1125	0.375	183	50	183	low	0	1
3	75	422	0.125	646	50	0	low	0	1
3	76	290	0.5	47	50	50	ambiguous	0.5	0
3	77	366	0.25	94	50	0	low	0	0
3	78	360	0.25	653	50	0	low	0	1
3	79	396	0.375	653	50	653	low	0	1
3	80	408	0.125	94	50	0	low	0	0
3	81	442	0.5	183	50	0	ambiguous	0.5	1
3	82	419	0.25	92	50	50	low	0	0
3	83	1415	0.5	50	50	0	ambiguous	0.25	0
3	84	1163	0.5	182	50	50	ambiguous	0.75	0
3	85	717	0.5	94	50	50	ambiguous	0.25	0
3	86	537	0.5	342	50	0	ambiguous	0.5	1
3	87	1530	0.5	94	50	50	ambiguous	0.75	0
3	88	1024	0.25	51	50	0	low	0	0
3	89	375	0.5	653	50	653	ambiguous	0.25	1
3	90	777	0.125	50	50	0	low	0	0
4	1	940	0.5	339	50	339	ambiguous	0.75	1
4	2	3222	0.5	337	50	337	ambiguous	0.75	1
4	3	1295	0.25	184	50	0	low	0	1
4	4	1943	0.5	182	50	0	ambiguous	0.25	1
4	5	1176	0.375	652	50	652	low	0	1
4	6	918	0.5	337	50	0	ambiguous	0.25	1
4	7	1404	0.25	99	50	0	low	0	1
4	8	1259	0.125	52	50	0	low	0	1
4	9	1847	0.125	337	50	0	low	0	1
4	10	952	0.5	182	50	182	ambiguous	0.75	1
4	11	1341	0.5	52	50	0	ambiguous	0.25	1
4	12	2206	0.5	93	50	0	ambiguous	0.75	1
4	13	4242	0.375	182	50	0	low	0	1
4	14	13020	0.125	339	50	0	low	0	0
4	15	1142	0.375	179	50	0	low	0	1
4	16	1633	0.5	339	50	0	ambiguous	0.5	1
4	17	1077	0.25	94	50	50	low	0	0
4	18	2892	0.5	48	50	0	ambiguous	0.75	0
4	19	524	0.5	652	50	652	ambiguous	0.5	1
4	20	797	0.5	337	50	337	ambiguous	0.5	1
4	21	1576	0.5	650	50	650	ambiguous	0.5	1
4	22	1018	0.25	339	50	0	low	0	1
4	23	1626	0.25	339	50	0	low	0	1
4	24	766	0.5	94	50	0	ambiguous	0.25	1
4	25	1089	0.5	94	50	94	ambiguous	0.75	1
4	26	546	0.5	650	50	650	ambiguous	0.75	1
4	27	982	0.125	93	50	0	low	0	0
4	28	1950	0.125	650	50	650	low	0	1
4	29	663	0.125	179	50	0	low	0	1
4	30	482	0.375	650	50	650	low	0	1
4	31	634	0.25	337	50	337	low	0	1
4	32	466	0.5	94	50	94	ambiguous	0.5	1
4	33	1844	0.25	182	50	0	low	0	1
4	34	576	0.375	339	50	0	low	0	1
4	35	618	0.125	182	50	50	low	0	0
4	36	659	0.5	48	50	0	ambiguous	0.75	0
4	37	389	0.125	652	50	0	low	0	1
4	38	1116	0.375	99	50	0	low	0	1
4	39	2504	0.25	93	50	0	low	0	1
4	40	374	0.5	650	50	650	ambiguous	0.25	1
4	41	342	0.5	179	50	179	ambiguous	0.5	1
4	42	409	0.375	48	50	48	low	0	1
4	43	2010	0.125	48	50	50	low	0	0
4	44	445	0.5	179	50	0	ambiguous	0.25	1
4	45	412	0.5	184	50	184	ambiguous	0.25	1
4	46	404	0.375	650	50	0	low	0	1
4	47	392	0.125	184	50	50	low	0	0
4	48	1678	0.125	339	50	339	low	0	1
4	49	428	0.5	339	50	0	ambiguous	0.75	1
4	50	385	0.5	99	50	99	ambiguous	0.25	1
4	51	370	0.5	93	50	93	ambiguous	0.25	1
4	52	537	0.25	48	50	50	low	0	0
4	53	1625	0.5	52	50	0	ambiguous	0.5	1
4	54	355	0.25	650	50	0	low	0	1
4	55	400	0.25	650	50	650	low	0	1
4	56	381	0.5	48	50	50	ambiguous	0.5	0
4	57	339	0.5	339	50	339	ambiguous	0.25	1
4	58	320	0.375	339	50	0	low	0	1
4	59	375	0.375	48	50	50	low	0	0
4	60	525	0.5	184	50	184	ambiguous	0.75	1
4	61	1071	0.125	99	50	50	low	0	0
4	62	1389	0.5	652	50	652	ambiguous	0.75	1
4	63	359	0.5	652	50	0	ambiguous	0.25	1
4	64	412	0.375	337	50	0	low	0	1
4	65	434	0.5	650	50	0	ambiguous	0.75	1
4	66	566	0.5	339	50	0	ambiguous	0.5	1
4	67	875	0.375	94	50	0	low	0	1
4	68	361	0.375	93	50	93	low	0	1
4	69	381	0.125	48	50	0	low	0	0
4	70	671	0.5	650	50	650	ambiguous	0.5	1
4	71	900	0.25	48	50	0	low	0	0
4	72	394	0.5	48	50	0	ambiguous	0.25	0
4	73	294	0.5	179	50	0	ambiguous	0.75	1
4	74	249	0.5	93	50	93	ambiguous	0.5	1
4	75	341	0.375	184	50	0	low	0	1
4	76	1096	0.5	182	50	0	ambiguous	0.5	1
4	77	1049	0.25	52	50	0	low	0	0
4	78	339	0.5	48	50	0	ambiguous	0.25	0
4	79	418	0.5	650	50	0	ambiguous	0.25	1
4	80	415	0.375	52	50	50	low	0	0
4	81	354	0.5	339	50	0	ambiguous	0.25	1
4	82	1097	0.25	652	50	0	low	0	1
4	83	580	0.125	94	50	50	low	0	0
4	84	360	0.5	99	50	0	ambiguous	0.5	1
4	85	1281	0.25	179	50	0	low	0	1
4	86	642	0.125	650	50	0	low	0	1
4	87	279	0.5	99	50	0	ambiguous	0.75	1
4	88	926	0.5	52	50	0	ambiguous	0.75	0
4	89	906	0.5	48	50	0	ambiguous	0.5	0
4	90	326	0.5	184	50	0	ambiguous	0.5	1
5	1	459	0.5	340	50	340	ambiguous	0.5	1
5	2	762	0.5	52	50	0	ambiguous	0.5	0
5	3	623	0.5	97	50	97	ambiguous	0.75	1
5	4	722	0.5	337	50	337	ambiguous	0.5	1
5	5	1220	0.5	183	50	0	ambiguous	0.25	1
5	6	983	0.25	52	50	0	low	0	0
5	7	919	0.375	650	50	0	low	0	1
5	8	802	0.375	183	50	183	low	0	1
5	9	834	0.5	339	50	339	ambiguous	0.75	1
5	10	810	0.5	52	50	0	ambiguous	0.75	0
5	11	657	0.5	649	50	649	ambiguous	0.75	1
5	12	801	0.25	650	50	0	low	0	1
5	13	803	0.5	50	50	50	ambiguous	0.75	0
5	14	839	0.125	50	50	0	low	0	0
5	15	824	0.125	50	50	0	low	0	0
5	16	950	0.5	50	50	50	ambiguous	0.25	0
5	17	870	0.5	183	50	183	ambiguous	0.5	1
5	18	776	0.375	92	50	92	low	0	1
5	19	854	0.125	97	50	50	low	0	0
5	20	760	0.5	92	50	92	ambiguous	0.75	1
5	21	713	0.125	649	50	0	low	0	1
5	22	821	0.5	337	50	337	ambiguous	0.25	1
5	23	810	0.5	650	50	0	ambiguous	0.75	1
5	24	1050	0.375	340	50	0	low	0	1
5	25	928	0.375	654	50	0	low	0	1
5	26	725	0.5	50	50	50	ambiguous	0.75	0
5	27	728	0.25	337	50	0	low	0	1
5	28	657	0.5	654	50	654	ambiguous	0.25	1
5	29	703	0.5	92	50	92	ambiguous	0.5	1
5	30	823	0.375	183	50	183	low	0	1
5	31	852	0.5	99	50	0	ambiguous	0.5	1
5	32	638	0.5	649	50	649	ambiguous	0.5	1
5	33	861	0.5	339	50	0	ambiguous	0.5	1
5	34	768	0.375	184	50	184	low	0	1
5	35	641	0.25	340	50	0	low	0	0
5	36	741	0.375	339	50	339	low	0	1
5	37	829	0.5	183	50	183	ambiguous	0.5	1
5	38	782	0.5	340	50	0	ambiguous	0.75	1
5	39	909	0.5	97	50	97	ambiguous	0.5	1
5	40	736	0.125	654	50	0	low	0	0
5	41	883	0.5	649	50	649	ambiguous	0.25	1
5	42	681	0.25	97	50	50	low	0	0
5	43	893	0.25	92	50	0	low	0	1
5	44	810	0.375	50	50	50	low	0	0
5	45	1219	0.5	52	50	0	ambiguous	0.25	0
5	46	911	0.25	649	50	50	low	0	0
5	47	781	0.5	340	50	0	ambiguous	0.25	1
5	48	763	0.375	337	50	0	low	0	1
5	49	810	0.5	184	50	184	ambiguous	0.5	1
5	50	756	0.25	654	50	50	low	0	0
5	51	735	0.375	97	50	0	low	0	1
5	52	728	0.375	649	50	0	low	0	1
5	53	1035	0.5	337	50	0	ambiguous	0.75	1
5	54	743	0.5	183	50	183	ambiguous	0.25	1
5	55	857	0.5	99	50	50	ambiguous	0.75	0
5	56	742	0.5	339	50	339	ambiguous	0.25	1
5	57	652	0.5	650	50	0	ambiguous	0.5	1
5	58	777	0.5	92	50	0	ambiguous	0.25	1
5	59	837	0.5	50	50	50	ambiguous	0.25	0
5	60	775	0.5	50	50	50	ambiguous	0.5	0
5	61	872	0.25	183	50	50	low	0	0
5	62	789	0.5	654	50	654	ambiguous	0.75	1
5	63	793	0.375	99	50	0	low	0	1
5	64	888	0.125	650	50	50	low	0	0
5	65	851	0.5	99	50	50	ambiguous	0.25	0
5	66	878	0.25	50	50	0	low	0	0
5	67	920	0.375	52	50	50	low	0	0
5	68	772	0.25	183	50	0	low	0	1
5	69	784	0.25	184	50	0	low	0	1
5	70	957	0.5	650	50	650	ambiguous	0.25	1
5	71	746	0.5	183	50	183	ambiguous	0.75	1
5	72	784	0.5	184	50	0	ambiguous	0.25	1
5	73	750	0.125	340	50	50	low	0	0
5	74	746	0.5	50	50	0	ambiguous	0.5	0
5	75	937	0.125	184	50	50	low	0	0
5	76	836	0.125	339	50	0	low	0	1
5	77	720	0.25	50	50	50	low	0	0
5	78	729	0.25	99	50	0	low	0	1
5	79	639	0.5	183	50	183	ambiguous	0.75	1
5	80	784	0.125	99	50	0	low	0	0
5	81	599	0.25	339	50	0	low	0	1
5	82	705	0.375	50	50	0	low	0	0
5	83	817	0.125	183	50	0	low	0	0
5	84	785	0.5	97	50	0	ambiguous	0.25	1
5	85	726	0.125	183	50	50	low	0	0
5	86	1112	0.125	92	50	0	low	0	0
5	87	799	0.125	52	50	0	low	0	0
5	88	818	0.5	654	50	0	ambiguous	0.5	1
5	89	847	0.5	184	50	0	ambiguous	0.75	1
5	90	778	0.125	337	50	0	low	0	0
6	1	7265	0.25	648	50	0	low	0	1
6	2	8033	0.375	651	50	0	low	0	1
6	3	5415	0.375	338	50	338	low	0	1
6	4	5183	0.5	337	50	0	ambiguous	0.5	1
6	5	1609	0.375	54	50	0	low	0	0
6	6	3036	0.5	646	50	0	ambiguous	0.75	1
6	7	10138	0.5	49	50	50	ambiguous	0.75	0
6	8	3121	0.375	648	50	0	low	0	1
6	9	2224	0.25	176	50	50	low	0	0
6	10	3415	0.125	49	50	0	low	0	0
6	11	3309	0.5	646	50	0	ambiguous	0.25	1
6	12	5624	0.25	184	50	184	low	0	1
6	13	5032	0.5	54	50	50	ambiguous	0.75	0
6	14	5991	0.5	53	50	0	ambiguous	0.5	0
6	15	2220	0.25	176	50	0	low	0	1
6	16	665	0.25	49	50	0	low	0	0
6	17	6233	0.125	651	50	651	low	0	1
6	18	6381	0.125	91	50	0	low	0	0
6	19	15254	0.5	338	50	0	ambiguous	0.25	1
6	20	8786	0.375	337	50	0	low	0	1
6	21	11423	0.5	91	50	91	ambiguous	0.25	1
6	22	5114	0.125	99	50	50	low	0	0
6	23	2545	0.125	53	50	50	low	0	0
6	24	13957	0.5	341	50	50	ambiguous	0.5	0
6	25	1837	0.5	648	50	0	ambiguous	0.25	1
6	26	4679	0.375	91	50	0	low	0	1
6	27	2697	0.125	91	50	50	low	0	0
6	28	12661	0.5	651	50	0	ambiguous	0.75	1
6	29	1942	0.5	99	50	99	ambiguous	0.5	1
6	30	3170	0.5	99	50	99	ambiguous	0.25	1
6	31	6455	0.375	99	50	99	low	0	1
6	32	3171	0.25	651	50	0	low	0	1
6	33	5667	0.375	176	50	0	low	0	1
6	34	4606	0.5	91	50	0	ambiguous	0.75	1
6	35	9317	0.125	646	50	0	low	0	0
6	36	1734	0.5	651	50	651	ambiguous	0.5	1
6	37	6134	0.5	91	50	0	ambiguous	0.5	1
6	38	1547	0.375	91	50	0	low	0	1
6	39	729	0.5	176	50	176	ambiguous	0.25	1
6	40	4438	0.5	49	50	0	ambiguous	0.25	0
6	41	4940	0.25	54	50	50	low	0	0
6	42	1126	0.5	49	50	50	ambiguous	0.5	0
6	43	1726	0.5	176	50	50	ambiguous	0.75	0
6	44	611	0.5	341	50	341	ambiguous	0.25	1
6	45	982	0.5	91	50	91	ambiguous	0.25	1
6	46	3389	0.5	184	50	184	ambiguous	0.5	1
6	47	372	0.375	184	50	0	low	0	1
6	48	54	0.125	341	50	0	low	0	1
6	49	5306	0.25	91	50	50	low	0	0
6	50	806	0.25	91	50	50	low	0	0
6	51	2225	0.25	341	50	0	low	0	0
6	52	1382	0.5	651	50	0	ambiguous	0.25	1
6	53	4960	0.5	176	50	0	ambiguous	0.25	1
6	54	641	0.375	646	50	0	low	0	1
6	55	1525	0.5	646	50	646	ambiguous	0.5	1
6	56	1188	0.25	646	50	0	low	0	0
6	57	2095	0.375	53	50	50	low	0	0
6	58	346	0.125	54	50	50	low	0	0
6	59	4855	0.25	338	50	50	low	0	0
6	60	4182	0.25	337	50	50	low	0	0
6	61	788	0.125	338	50	50	low	0	0
6	62	2593	0.5	91	50	0	ambiguous	0.75	0
6	63	163	0.125	184	50	50	low	0	0
6	64	965	0.5	184	50	0	ambiguous	0.25	1
6	65	927	0.5	176	50	0	ambiguous	0.5	1
6	66	2085	0.125	176	50	50	low	0	0
6	67	826	0.375	341	50	341	low	0	1
6	68	5905	0.5	54	50	50	ambiguous	0.5	0
6	69	27	0.375	49	50	0	low	0	0
6	70	2324	0.25	53	50	0	low	0	0
6	71	606	0.5	648	50	648	ambiguous	0.5	1
6	72	8977	0.5	53	50	50	ambiguous	0.25	0
6	73	3788	0.125	337	50	0	low	0	0
6	74	3013	0.375	176	50	176	low	0	1
6	75	732	0.5	53	50	50	ambiguous	0.75	0
6	76	2932	0.5	648	50	0	ambiguous	0.75	1
6	77	520	0.5	337	50	0	ambiguous	0.25	1
6	78	4407	0.25	99	50	0	low	0	0
6	79	5193	0.5	54	50	50	ambiguous	0.25	0
6	80	3191	0.5	91	50	0	ambiguous	0.5	1
6	81	390	0.5	176	50	0	ambiguous	0.5	1
6	82	7450	0.5	341	50	341	ambiguous	0.75	1
6	83	2018	0.5	337	50	50	ambiguous	0.75	0
6	84	1206	0.5	184	50	0	ambiguous	0.75	0
6	85	1363	0.125	648	50	0	low	0	0
6	86	3957	0.5	338	50	0	ambiguous	0.5	1
6	87	6344	0.125	176	50	0	low	0	0
6	88	5897	0.5	99	50	0	ambiguous	0.75	0
6	89	1421	0.5	338	50	50	ambiguous	0.75	0
6	90	885	0.5	176	50	0	ambiguous	0.75	0